ax,ay,az,gx,gy,gz,label
0.016998291015625,-0.962234497070312,0.203887939453125,-0.0169944298641226,0.019258649422908,0.0072398034233804,1
0.050750732421875,-0.962997436523438,0.193954467773438,-0.018083130117747,0.0043726441938011,0.0008697884120198,1
0.03741455078125,-0.959228515625,0.191543579101562,-0.0149927979888191,-0.0094757934746109,0.0009371663875988,1
0.0537872314453125,-0.963851928710938,0.277252197265625,-0.0468934731063332,-0.0018221348178322,0.0016570188302473,1
0.031646728515625,-0.9530029296875,0.27105712890625,-0.0073705646329033,0.0032384038855363,-0.0043486757439903,1
0.0387725830078125,-0.947341918945312,0.283523559570312,-0.0128114027399352,-0.0084267743212287,-0.0022418490056287,1
0.0444793701171875,-0.947998046875,0.278518676757812,-0.0170157351528433,-0.0030810110651126,-0.0033649040373151,1
0.05328369140625,-0.9471435546875,0.274276733398438,-0.0213372466537149,-0.0094350471099327,-0.0023265375282932,1
0.0488739013671875,-0.94635009765625,0.2652587890625,-0.02671816363622,-0.0072717613564613,0.0029438582689735,1
0.0508880615234375,-0.93658447265625,0.295486450195312,-0.0256081580938749,-0.0051518851287582,0.0008173241385453,1
0.036956787109375,-0.932571411132812,0.322357177734375,-0.0264824738797479,0.0065535068104669,-0.0066853332844259,1
0.0538787841796875,-0.9285888671875,0.334365844726562,-0.0169638035115867,-0.002018143474062,-0.0065657573514813,1
0.0697174072265625,-0.923843383789062,0.325973510742188,-0.0203311043938829,-0.0094409060643309,0.0019486349696109,1
0.0268402099609375,-0.934616088867188,0.354171752929688,-0.0179273351939774,-0.0041406828628552,-0.0150998570646403,1
0.065338134765625,-0.94378662109375,0.332443237304688,-0.027828169178565,-0.0327954972437808,-0.007663778668921,1
0.120620727539062,-0.899734497070312,0.317001342773438,-0.0534283377891697,-0.0368837158331614,-0.0068491176914657,1
0.0513763427734375,-0.9091796875,0.344772338867188,-0.0295581586226805,-0.0030021814968463,-0.0205529457126865,1
0.108840942382812,-0.875656127929688,0.398834228515625,-0.0136303247751345,-0.0530919805434927,0.0330500954439924,1
0.089599609375,-0.93865966796875,0.342697143554688,-0.0440441570560575,-0.0380062382326298,0.0071106401105115,1
0.0402374267578125,-0.893035888671875,0.395462036132812,0.0223926573937133,-0.0171670027027598,-0.0114547884806488,1
0.0618133544921875,-0.947723388671875,0.404266357421875,-0.0169598087699516,-0.0073372751192773,-0.0097506316991071,1
0.071990966796875,-0.906295776367188,0.350509643554688,-0.0395269032150651,-0.0231452667177697,-0.0035436021464594,1
0.0770721435546875,-0.918655395507812,0.363677978515625,-0.0139653504402665,-0.0222477814304129,-0.0032842102562857,1
0.042266845703125,-0.934371948242188,0.33038330078125,-0.0248643372014158,-0.0147272808281382,0.0189752890829236,1
0.0735015869140625,-0.929916381835938,0.343215942382812,-0.0160269034400969,-0.0190437323229386,-0.0065122278135707,1
0.0333251953125,-0.932235717773438,0.34979248046875,-0.0248443634932402,-0.0296210092244063,0.0094180028789562,1
0.0909576416015625,-0.939727783203125,0.322647094726562,-0.0842091536683055,0.0515992787525033,-0.0436438839442186,1
0.12060546875,-0.916290283203125,0.320571899414062,-0.0405090770250863,-0.0316503379750467,-0.0141938496617953,1
0.0658416748046875,-0.937332153320312,0.236480712890625,-0.0521718583868703,0.000339286722876,-0.0005350290629969,1
0.06866455078125,-0.988800048828125,0.214096069335938,-0.010554107399984,-0.0148258177884711,-0.0149967927304542,1
0.022216796875,-0.921157836914062,0.310745239257812,-0.0077252976901018,-0.0648266672547088,0.0619286153564846,1
0.055999755859375,-0.981475830078125,0.270980834960938,-0.0630708451480196,-0.0623517916536982,-0.0164780429287563,1
0.115386962890625,-0.970138549804688,0.299453735351562,-0.0233508627539238,-0.0232528584258089,-0.0183047051204416,1
0.08563232421875,-0.896804809570312,0.112136840820312,-0.287364136367256,-0.176828037426863,0.0465600453378553,1
0.093658447265625,-0.908981323242188,0.29986572265625,0.0676967559614872,-0.0344770171560568,0.0146428586215827,1
0.04351806640625,-0.906173706054688,0.2681884765625,-0.0459472519710281,-0.0156564577324668,0.0027686222692463,1
-0.0363922119140625,-0.952133178710938,0.379074096679688,-0.000101732753641,-0.0967925898189299,0.0322351681504281,1
0.070770263671875,-0.905853271484375,0.271804809570312,-0.0354943446924671,-0.0338069658257929,0.0071873391499058,1
0.00543212890625,-0.986602783203125,0.294540405273438,0.0352168433068808,-0.0980882176892535,0.0187393330103426,1
0.100051879882812,-0.89385986328125,0.233139038085938,-0.0273538601884219,-0.138096620429405,0.0555194518770999,1
0.0904388427734375,-0.964645385742188,0.298248291015625,0.0311954700608612,0.0051124703446251,-0.0199518702546556,1
0.00811767578125,-1.01890563964844,0.337371826171875,0.004235757713771,-0.0415035013761219,0.0566598174558718,1
0.12213134765625,-1.00016784667969,0.291824340820312,0.0186804771502518,-0.0139453767320909,0.0279488103759456,1
0.103485107421875,-0.944854736328125,0.357315063476562,-0.0100899184219832,-0.0499276125362605,0.0096214683862382,1
0.08355712890625,-0.937637329101562,0.343582153320312,-0.0262100325002328,-0.0189704953929614,0.0370981003009128,1
0.127914428710938,-0.914443969726562,0.248504638671875,-0.038886945605119,-0.0348463975992508,0.0210160694262513,1
0.0909423828125,-0.974761962890625,0.26123046875,-0.0254824568904232,0.0948317043083046,-0.031425833495153,1
0.113739013671875,-0.929489135742188,0.280899047851562,-0.0271384104562345,0.0161273046131928,-0.0312396785349565,1
0.122283935546875,-0.972640991210938,0.224624633789062,0.0018439727387708,-0.0861649791728597,0.0514195153789229,1
0.0450592041015625,-0.954483032226562,0.200149536132812,0.0079905485346737,-0.0234496660303657,0.0257314624523456,1
0.048614501953125,-0.960052490234375,0.228271484375,0.028972263182863,-0.0437948851780261,0.0377271389503895,1
0.042388916015625,-0.956451416015625,0.313812255859375,-0.0809475802812855,-0.0090475571713262,-0.0040040626989341,1
0.071685791015625,-0.936599731445312,0.28662109375,-0.0353265655437921,-0.0114699684988623,0.0071314127670141,1
0.101287841796875,-0.920181274414062,0.223190307617188,-0.0025164209140158,0.0531990396193139,-0.0204211192387276,1
0.0624847412109375,-0.914413452148438,0.211669921875,0.0365319122531619,-0.060866280397652,0.0207891681013765,1
0.102279663085938,-0.99810791015625,0.2220458984375,0.0514474785703687,-0.0694738833568971,0.0156330219148741,1
-0.0075225830078125,-0.874267578125,0.279708862304688,0.0442673299554061,-0.0545370117509697,0.0037926077083818,1
-0.0102081298828125,-0.923934936523438,0.3155517578125,-0.0241364952754971,-0.0147280797764652,0.0435056658836434,1
0.1375732421875,-1.02006530761719,0.224853515625,-0.0378131590535991,0.0938428725955582,-0.0646021627748151,1
0.127960205078125,-0.99072265625,0.16168212890625,0.0908904922110963,-0.0516461503876887,0.0223881300198601,1
0.078125,-0.885116577148438,0.199798583984375,-0.0746156484735131,-0.0686491023672995,0.0452604227258966,1
0.1104736328125,-1.00247192382812,0.156646728515625,0.0274185750029108,0.0732153583723494,-0.0180338616375806,1
0.1201171875,-0.968505859375,0.168167114257812,0.0033566482379358,0.0255077569207789,0.0021009677839635,1
0.086029052734375,-0.88226318359375,0.236358642578125,-0.0706206405222852,0.0100252036074943,-0.0476623277130391,1
0.0380859375,-0.928070068359375,0.182205200195312,-0.0279213798167178,-0.0061985074371594,0.0135909099910014,1
-0.054962158203125,-1.05821228027344,0.174179077148438,0.008504005992841,-0.0968495814662576,0.0259261395280304,1
-0.0318145751953125,-0.956756591796875,0.162994384765625,0.0046530750565864,-0.0138644166349525,-0.0361678581321481,1
0.0921783447265625,-0.942901611328125,0.169326782226562,0.0111341438854033,-0.0341076367128628,0.0236587241759369,1
0.073455810546875,-0.951431274414062,0.195999145507812,0.0139858567806601,0.0945741766308939,-0.0363521488795816,1
0.085418701171875,-0.9730224609375,0.182388305664062,-0.0010532802111263,-0.0680648048241362,0.0396147875310377,1
0.09393310546875,-0.947174072265625,0.176803588867188,-0.0105612979349272,-0.065876219040309,0.0352469370271987,1
0.08489990234375,-1.09620666503906,0.195205688476562,0.0730502423847645,0.0176021632248787,-0.0366150028791724,1
0.0871734619140625,-0.928970336914062,0.191604614257812,-0.0445083460340583,-0.0029044434848404,-0.0175076210061809,1
0.048065185546875,-0.960525512695312,0.216323852539062,-0.0408086826477202,-0.0305810787973799,0.0081908182486477,1
0.157745361328125,-1.01716613769531,0.125885009765625,0.0115261611978629,0.0701263578239665,-0.0256521002518612,1
0.167800903320312,-1.01300048828125,0.125106811523438,-0.13728462261304,0.122154139195864,-0.0177140159906621,1
0.091522216796875,-0.891693115234375,0.192901611328125,-0.0770388587493762,0.0164625965944338,0.0354200424980539,1
0.168777465820312,-0.944671630859375,0.105331420898438,-0.0195209707902808,0.11925315782044,-0.0644804563129985,1
0.148529052734375,-0.921600341796875,0.21478271484375,0.0462702934112547,0.0124715833848411,0.0494873920080704,1
0.119003295898438,-0.9361572265625,0.171295166015625,-0.0248110739796142,0.0235689756472013,0.0359364294334202,1
0.15380859375,-0.982223510742188,0.147674560546875,0.0121043334705191,0.0137586891396764,0.056597765802473,1
0.11700439453125,-0.9417724609375,0.183746337890625,0.0052384378641858,0.0159241054220198,0.0149395347670175,1
0.04083251953125,-0.979568481445312,0.18695068359375,0.0301312708892655,0.127445307649633,-0.0309406055445406,1
0.089324951171875,-0.952346801757812,0.161331176757812,-0.0239135886922575,0.111849037357802,0.0186583729132042,1
0.122894287109375,-0.950958251953125,0.178207397460938,-0.0408321184653129,0.100255764500469,0.0035880769366637,1
0.11273193359375,-0.979385375976562,0.152252197265625,-0.05159208821756,0.10031462036056,-0.0658261516118156,1
0.0737152099609375,-1.00279235839844,0.193023681640625,0.0089016159435898,0.228619862726179,-0.135908034645578,1
0.1282958984375,-1.03179931640625,0.170562744140625,-0.0341622315152094,0.133174832418829,-0.076394640081686,1
0.0844268798828125,-1.08479309082031,0.16888427734375,0.0618170289068103,0.0059801282277729,-0.0004487426436783,1
0.14166259765625,-0.957809448242188,0.170196533203125,0.0253943062583416,0.1008864010466,-0.0106624980563502,1
0.169967651367188,-0.925308227539062,0.16754150390625,-0.0717407660767725,0.136614304966667,-0.0522653353411321,1
0.138641357421875,-0.936737060546875,0.255996704101562,-0.0097777959422259,0.0670735762664087,-0.0269285533623362,1
0.12567138671875,-0.928634643554688,0.221237182617188,0.0448540243435506,-0.0460247499587494,0.0432265666014031,1
-0.0088348388671875,-1.17503356933594,0.10260009765625,0.133115976558739,0.0661417362009899,-0.0414563634248275,1
0.0462188720703125,-0.842971801757812,0.348358154296875,-0.155976817672088,-0.04365959659465,0.0123765085339252,1
0.253555297851562,-1.084228515625,0.305450439453125,-0.222279941435137,0.398182264067088,-0.192023235658528,1
0.215072631835938,-0.900863647460938,0.24359130859375,-0.158050887529042,0.238213634237081,-0.14830425057157,1
0.0773468017578125,-0.933807373046875,0.276458740234375,-0.115491176464594,0.0369140758695883,-0.0226019818553935,1
0.1243896484375,-0.97222900390625,0.242401123046875,-0.0920825231150158,0.0984506739136132,-0.065169682403111,1
0.09326171875,-0.821044921875,0.237457275390625,-0.113729495403507,0.160284214419182,-0.0836765214502897,1
0.124908447265625,-0.8739013671875,0.343856811523438,0.0092464953047551,-0.108552576560502,0.0430233674102301,1
0.003143310546875,-1.06161499023438,0.26373291015625,-0.0101815311634819,-0.12330409215456,0.131358290239286,1
0.0116424560546875,-0.974578857421875,0.201889038085938,-0.107264938173448,0.0155877481763428,-0.0128667964906088,1
-0.0009765625,-0.913421630859375,0.201797485351562,0.0228288831802682,-0.0033329461042341,0.0418246786035854,1
-0.0036163330078125,-0.920196533203125,0.344863891601562,-0.109679360017714,-0.0067332701840473,-0.004304200953786,1
0.125396728515625,-0.959197998046875,0.235519409179688,0.0449770623859122,-0.008806008460456,-0.0229734928274595,1
0.034698486328125,-0.949493408203125,0.222824096679688,-0.0627928111302153,0.0631480768196319,-0.123420472294196,1
0.018402099609375,-0.981399536132812,0.20135498046875,-0.014621287016753,-0.0009720537978789,-0.0214714699726548,1
0.12408447265625,-0.863555908203125,0.202728271484375,0.0324727221196632,-0.0225449902080658,0.0270459987664087,1
0.0794677734375,-0.974441528320312,0.274246215820312,-0.0026064357588605,0.136165562322988,-0.0462252859888324,1
0.0679473876953125,-0.935577392578125,0.192230224609375,-0.0179566299659683,0.0426675690885955,0.0125006118407229,1
-0.0425262451171875,-0.992843627929688,0.285858154296875,0.0234001312340902,0.0434643868867472,0.0257165487502412,1
-0.104904174804688,-0.893112182617188,0.312393188476562,0.0192863462982448,-0.005445898113103,-0.0115168401340477,1
0.096923828125,-0.987396240234375,0.204879760742188,0.025476331619916,0.0051542819737393,0.0087772463206831,1
0.061859130859375,-0.934768676757812,0.289657592773438,-0.0026362631630694,0.025542111698841,-0.0267482573565379,1
0.130783081054688,-0.951187133789062,0.186813354492188,0.012770922691366,-0.0373039626531759,0.0578025798796248,1
0.037200927734375,-0.94805908203125,0.28009033203125,-0.0605685389877811,0.0184772779590788,0.0003984088990758,1
-0.0050811767578125,-0.877090454101562,0.194976806640625,-0.0373636174615937,0.0704432739936859,-0.0325507527396025,1
-0.06231689453125,-1.02424621582031,0.165603637695312,0.0075724322435313,-0.083015524867732,0.0237484727046726,1
-0.0939178466796875,-0.871261596679688,0.24798583984375,-0.0702121116110671,-0.0878156064164908,0.101864313798877,1
-0.134674072265625,-0.952926635742188,0.223480224609375,-0.0713588687764552,-0.0622881421036453,0.0442111372564054,1
-0.135345458984375,-0.990646362304688,0.220611572265625,-0.0145901280319991,0.0532693470720919,-0.071723189213578,1
-0.133102416992188,-1.01411437988281,0.1566162109375,0.0339869955154822,-0.0927592323480049,0.0336399856254449,1
-0.154586791992188,-0.874160766601562,0.220382690429688,0.134722395328274,-0.111494304300603,0.0549777649113778,1
-0.0439453125,-0.98980712890625,0.212814331054688,-0.0278934166252719,-0.0200285692940499,0.0040309606259439,1
-0.149749755859375,-0.976348876953125,0.220413208007812,-0.0767171488896946,-0.117571105275946,0.0165773788374162,1
-0.165008544921875,-1.0341796875,0.149063110351562,0.0864478068806261,-0.0994866435776541,0.0096715358147317,1
-0.0659942626953125,-0.967742919921875,0.234024047851562,-0.0241093310323783,-0.0604849157295526,-0.0608649488171069,1
0.0423126220703125,-0.971786499023438,0.194488525390625,-0.0425554500067032,0.0353697087534514,-0.0613011746036619,1
0.0647430419921875,-0.89288330078125,0.217864990234375,-0.0806985747193631,0.0260537049442452,-0.003025883630548,1
0.130233764648438,-0.919891357421875,0.260528564453125,0.0138753355954218,-0.000103064334186,-0.079823726301272,1
0.2694091796875,-1.06512451171875,0.268661499023438,0.0849210166276837,0.144079411818268,-0.211678962399967,1
0.312026977539062,-0.924026489257812,0.326324462890625,0.0561306473472731,-0.0514120585278707,0.0721437023497015,1
0.0851593017578125,-1.02902221679688,0.290023803710938,-0.118987108027541,0.120969032510778,-0.0324506178826155,1
0.0758819580078125,-1.03836059570312,0.225784301757812,0.0622985284318966,-0.0599725235358214,0.0061236726105282,1
-0.007537841796875,-0.947540283203125,0.3577880859375,0.102746885384129,0.0312399448510655,-0.0203529423148216,1
0.221893310546875,-0.849807739257812,0.243743896484375,-0.139065212117867,0.129608327086995,-0.0390757637264056,1
0.02044677734375,-1.0196533203125,0.297927856445312,-0.0159802981210205,-0.0264912623113452,-0.0139560293764512,1
-0.0149078369140625,-0.949081420898438,0.315643310546875,0.0035723642862322,0.0074190341647427,-0.0234392797021144,1
0.0935516357421875,-0.957321166992188,0.246383666992188,-0.0363787804904824,0.0012900352320343,-0.0643486298390396,1
0.0091094970703125,-1.05123901367188,0.204025268554688,-0.0089940276334156,0.0043068641148761,-0.0406193318942156,1
0.0855865478515625,-0.985336303710938,0.169754028320312,-0.0427157723043259,-0.0146140964818098,0.0006665892208468,1
0.142471313476562,-0.993850708007812,0.188018798828125,-0.05569122576741,0.121615648023449,-0.0659230906754944,1
0.16650390625,-0.828720092773438,0.25225830078125,-0.0031830101348627,0.0340501124333171,-0.0598284465208481,1
0.147750854492188,-0.934921264648438,0.198318481445312,-0.0863351551665158,-0.0058203385623681,0.0023297333216013,1
0.0658416748046875,-0.946395874023438,0.153518676757812,0.00349779577571,0.0169946961802316,-0.0128026143083379,1
0.140487670898438,-0.907135009765625,0.239288330078125,-0.0730078981234322,0.094072437081523,-0.060698234932868,1
0.0879364013671875,-0.9600830078125,0.20623779296875,0.04473338314617,0.0114108463226625,0.0057596184895143,1
0.0659942626953125,-0.984161376953125,0.17462158203125,-0.10128081520404,0.0527745317415552,-0.0406230603197417,1
0.0955047607421875,-1.02592468261719,0.139419555664062,-0.0462982566027005,0.0364642679614739,-0.0208261860405286,1
0.0303192138671875,-0.88714599609375,0.1610107421875,-0.0515931534819961,-0.0507217671733221,0.0070661653203072,1
0.118423461914062,-1.01243591308594,0.139022827148438,-0.0551010692698484,0.0375886545737054,0.000405066801801,1
0.0350494384765625,-0.966522216796875,0.230545043945312,-0.0161400877864252,-0.03606266326909,-0.0075356806204882,1
0.125625610351562,-1.03756713867188,0.145553588867188,0.0168458254752962,0.0637089385452026,-0.0287797166360503,1
0.074432373046875,-1.04583740234375,0.11224365234375,0.0877482284409118,-0.0505625101401354,0.0191545198242859,1
0.035675048828125,-0.906280517578125,0.0504608154296875,-0.0493137539049973,-0.0496620953755796,0.0742582522552244,1
0.110443115234375,-1.00871276855469,0.035064697265625,-0.0188700942198654,-0.0360378958709522,0.0361510802172806,1
0.0350494384765625,-0.905075073242188,0.0391693115234375,-0.031626902157454,-0.0391466038114017,0.0328298520218428,1
0.0842437744140625,-0.952011108398438,0.0064697265625,-0.0934761553134542,0.0527196706230996,-0.0661321488210657,1
0.2232666015625,-1.0179443359375,0.0782470703125,0.0597472201076007,-0.181200681620664,0.125826372022974,1
0.15802001953125,-1.03974914550781,0.0534515380859375,-0.113551862558799,0.214522952128063,-0.1445888745348,1
-0.0657196044921875,-1.01611328125,0.1380615234375,0.0219947811268554,-0.158621869266755,0.0955275883011423,1
0.103286743164062,-0.983749389648438,0.07373046875,-0.0768830638256065,-0.0154545901218388,0.0067162259530708,1
-0.0194854736328125,-0.938827514648438,0.077178955078125,-0.0082067972151881,-0.0456817348103472,0.0298878579656323,1
0.122970581054688,-1.00759887695312,0.00244140625,-0.0358040703272433,0.060865481449325,0.0037412086993433,1
0.103927612304688,-0.904525756835938,0.0421600341796875,-0.0336985751694266,0.0225548439040991,-0.0153302204989321,1
0.0783843994140625,-0.99462890625,0.0212249755859375,-0.0075689701341142,0.013880129285384,0.0158798969479245,1
0.0206298828125,-0.973052978515625,0.0225372314453125,-0.0294023636989108,0.0469941405955382,-0.0046871635185394,1
0.0637054443359375,-0.956878662109375,0.015289306640625,-0.0037734329485332,-0.0244363672142401,0.0288122072013493,1
0.0466156005859375,-0.947982788085938,0.117355346679688,-0.0808730117707633,-0.0069212893570069,-0.0082736425585491,1
0.104263305664062,-0.997589111328125,0.0044708251953125,-0.0363122014632304,0.0608622856560169,-0.0367801188667573,1
0.0570526123046875,-0.986968994140625,0.03790283203125,-0.0145618985244443,-0.0392579239449671,0.0308724286206346,1
0.0806427001953125,-1.00306701660156,-0.0235595703125,-0.01152962330728,-0.0009909622416184,-0.0139762694007358,1
0.0037841796875,-1.00762939453125,-0.0274505615234375,-0.0174791251825171,-0.0413698106893999,0.0095237303742323,1
0.06591796875,-1.03413391113281,-0.0416412353515625,-0.0351614495562072,0.0066118300383397,0.0049540122597654,1
0.00927734375,-0.989883422851562,0.009857177734375,-0.0396640560112041,-0.0199513376224376,0.0081751055982162,1
0.032806396484375,-1.03297424316406,-0.0291900634765625,-0.0151765561040346,-0.0105362642206805,0.0137325901609936,1
0.0436553955078125,-1.00077819824219,0.0113983154296875,-0.0244076050744672,0.0012215919920193,-0.0055841161736781,1
0.0283355712890625,-1.01445007324219,0.0542449951171875,0.0033326797881251,-0.0127890321867785,-0.0169922993352506,1
0.049835205078125,-0.999237060546875,0.084075927734375,-0.0084845649168834,-0.0052642705267596,-0.0054043528000978,1
0.071136474609375,-0.963516235351562,0.127273559570312,-0.0212387096933819,-0.0041177796774805,-0.0066041068711785,1
0.0561981201171875,-0.983245849609375,0.15045166015625,-0.0232776258239466,0.0001496696532624,-0.0109008509739123,1
0.078857421875,-0.982391357421875,0.136703491210938,-0.0023984428777253,-0.0201936852816348,0.0085572692146426,1
0.0608978271484375,-0.984130859375,0.12200927734375,-0.0032474586332426,-0.0148716241592205,-0.0042597261635817,1
0.070068359375,-0.979476928710938,0.127349853515625,-0.0161054666922542,-0.0158508684920426,0.00094222639367,1
0.07073974609375,-0.984893798828125,0.128189086914062,-0.0096052231035887,-0.0010010822537607,0.0009704559012248,1
0.0606842041015625,-0.978744506835938,0.124893188476562,-0.0191438671799256,-0.0009395632325799,-0.0023260048960752,1
0.0701446533203125,-0.9781494140625,0.132049560546875,-0.0106739496490376,-0.0073769562195194,-0.0022226742457801,1
0.072784423828125,-0.976211547851562,0.150604248046875,-0.0180551669263012,0.0022445121667187,-0.0023230754188761,1
0.0833282470703125,-0.952499389648438,0.2322998046875,-0.0053849117241402,-0.0042195124311215,0.0020881846107311,1
0.0733489990234375,-0.961074829101562,0.247726440429688,-0.0127488184543183,-0.0020450414010718,-0.0033238913565279,1
0.088043212890625,-0.9500732421875,0.25103759765625,-0.010688597035033,-0.0073766899034104,-0.0011566108614214,1
0.0841217041015625,-0.954147338867188,0.241470336914062,-0.0191824830157317,-0.0041302965346038,-0.0012519520284462,1
0.0836334228515625,-0.950454711914062,0.247970581054688,-0.0159283664797639,-0.0020245350606782,-0.0044227116222945,1
0.0699615478515625,-0.9525146484375,0.242568969726562,-0.0160402192455473,-0.0052139367821571,0.0019816581671279,1
0.0791015625,-0.949172973632812,0.230316162109375,-0.0181869934002601,-0.0094550208181083,0.0009044095061909,1
0.087310791015625,-0.93341064453125,0.316787719726562,-0.0073039856056513,0.0043010051604779,-0.0086155924425153,1
0.0816650390625,-0.916763305664062,0.363189697265625,0.0096704705502957,-6.39158661619017e-05,-0.0062981096619283,1
0.0949249267578125,-0.92095947265625,0.352005004882812,-0.0170223930555685,-0.002017078209626,-0.0023015038140464,1
0.093841552734375,-0.906082153320312,0.373367309570312,-0.0267168320556749,-0.005144161961597,0.0040045953311521,1
0.07940673828125,-0.8812255859375,0.444091796875,-0.0097849864771691,0.0043212451847625,0.0169480908611553,1
0.146759033203125,-0.821807861328125,0.43017578125,0.0190634397150052,-0.0735133660983293,0.0451658805071988,1
0.185714721679688,-0.89691162109375,0.510513305664062,0.0014389059369698,0.0244539440774346,-0.0139091577412658,1
0.129135131835938,-0.833724975585938,0.533721923828125,-0.0639190619552098,-0.0485068160947032,0.0527814559603894,1
-0.070068359375,-0.977249145507812,0.472625732421875,-0.0270257587421241,-0.0657758178672131,-0.0065042383303005,1
0.01446533203125,-0.833633422851562,0.503341674804688,0.0464066472590668,-0.0109471899768797,-0.0506748955381368,1
0.10015869140625,-0.890869140625,0.452682495117188,-0.0153576510581599,-0.042447325666446,0.009548231456261,1
-0.0290069580078125,-0.917129516601562,0.417129516601562,-0.0316900190752889,-0.0742388111792669,0.0958263949754492,1
0.0927886962890625,-0.978775024414062,0.292327880859375,0.0205659952020279,0.038147119454295,-0.0809201497220576,1
0.210586547851562,-0.838226318359375,0.394882202148438,0.129960130666995,-0.0965640905974011,0.0996714669573056,1
0.244369506835938,-0.885040283203125,0.302322387695312,-0.0081037328810021,0.053238454403447,-0.0012865731226172,1
0.0948944091796875,-0.882476806640625,0.402816772460938,-0.0611429828349112,-0.0729876580991476,0.0699324796966087,1
0.111114501953125,-0.821121215820312,0.466140747070312,-0.0843007664098042,-0.0334791306956041,0.0717258523746681,1
0.0527496337890625,-0.858383178710938,0.424774169921875,-0.105560248759689,0.0038796930760274,0.0117037940425712,1
0.0169525146484375,-0.91766357421875,0.354568481445312,-0.0573514403909654,-0.0942830931237482,0.0924167498318207,1
-0.0841064453125,-0.929718017578125,0.310775756835938,-0.0199089933611054,0.033103891298012,-0.0056203351645032,1
-0.0643157958984375,-1.18617248535156,0.166000366210938,-0.0055247276813693,-0.063790431274559,-0.0201500094397575,1
-0.0087127685546875,-1.04437255859375,0.191207885742188,0.0880065550666495,-0.0707796312393629,-0.0106446548770467,1
0.0232086181640625,-0.987823486328125,0.236114501953125,-0.0122366925766961,-0.0424667667424035,0.0149113052594627,1
0.138504028320312,-1.02325439453125,0.170974731445312,0.0589749033914777,0.0698107732347921,-0.0688802647499184,1
0.113555908203125,-0.958953857421875,0.193374633789062,-0.0324128009951364,0.0012676646788777,-0.0429836863099879,1
0.104217529296875,-1.02751159667969,0.215988159179688,0.0202584000961238,0.0732585015820087,-0.0394315620480402,1
0.247711181640625,-0.884628295898438,0.378021240234375,-0.0145736164332406,0.177722593237021,-0.0827063318651738,1
0.170761108398438,-0.951492309570312,0.358688354492188,-0.0312069216535485,0.109766978017578,0.0057945058997944,1
0.0767669677734375,-0.911788940429688,0.402633666992188,-0.0256853897654872,0.0118705079268102,0.0156996009421261,1
0.189346313476562,-0.896484375,0.383102416992188,-0.0038227014286997,-0.0212440360155621,0.0341345346398726,1
0.127716064453125,-0.913681030273438,0.3966064453125,0.0253370482949049,0.0679092762164755,-0.0244387640592211,1
0.175308227539062,-0.86297607421875,0.407440185546875,-0.0465667032405805,0.0917749280091116,-0.0486932373710088,1
0.0953369140625,-0.924087524414062,0.487228393554688,-0.0651659539775849,0.106782639700035,-0.081975027829838,1
0.241165161132812,-0.812576293945312,0.392959594726562,-0.0757813140826408,0.15791426736512,-0.0566265279422458,1
0.0078887939453125,-1.01193237304688,0.445465087890625,0.120701118505116,-0.0709761725278108,0.0899147099876913,1
-0.15484619140625,-0.892684936523438,0.381790161132812,-0.0751757112507567,-0.0112055166026174,0.0397753761447695,1
-0.08392333984375,-0.936767578125,0.409683227539062,-0.04745806325743,-0.0496834006643002,0.0167017484603229,1
-0.0684967041015625,-0.936599731445312,0.3653564453125,0.0263421252903008,-0.106536829931421,0.039994554302483,1
-0.12347412109375,-0.876251220703125,0.357223510742188,0.0034762241708804,-0.182964226894515,0.112460232827975,1
-0.072601318359375,-0.93011474609375,0.390365600585938,-0.0996911743493721,-0.100405966785949,-0.007158843326242,1
0.013275146484375,-0.879318237304688,0.333709716796875,-0.0117099193130784,-0.129696477719077,0.0066120963544487,1
0.054840087890625,-0.99859619140625,0.363983154296875,-0.0240259740902589,-0.0604739967690833,0.0105722168953966,1
-0.0066375732421875,-0.979721069335938,0.370513916015625,-0.0195561245166699,0.0352250991062601,-0.0301451193269339,1
-0.0605621337890625,-0.863616943359375,0.425277709960938,-0.0875924335171422,0.0420491830834791,-0.0351241653009461,1
0.107147216796875,-1.04658508300781,0.322601318359375,-0.0238589938899109,0.0118497352703076,-0.039724776084058,1
0.175033569335938,-0.88909912109375,0.245574951171875,-0.0919826545741378,0.0941936109111216,-0.0747536002179792,1
0.121337890625,-0.917373657226562,0.265960693359375,0.0168966918521167,-0.0745626515678205,0.0472788325160677,1
0.0771026611328125,-0.921615600585938,0.216629028320312,-0.0609986395038289,-0.0017273262830253,0.020704213262603,1
0.0621185302734375,-0.974090576171875,0.1917724609375,-0.046181077514737,0.0247602076027937,-0.0357217786495598,1
0.0384674072265625,-0.99542236328125,0.105545043945312,0.0316530011361368,-0.052329251207294,-0.0070043799830174,1
0.0426483154296875,-0.961395263671875,0.173797607421875,0.0340509113816441,-0.0725479702031755,0.0399857658708857,1
0.0877227783203125,-1.00570678710938,0.176864624023438,-0.0329433026842802,-0.043390351008443,0.0488205364711146,1
0.084564208984375,-0.913726806640625,0.110748291015625,0.0176357190546137,-0.0054283212499085,0.0311147762798318,1
0.053619384765625,-1.07435607910156,0.0902862548828125,-0.0953696628485006,-0.0121384219324722,0.0363723889038662,1
-0.03173828125,-1.01448059082031,0.0636138916015625,-0.0002849582366384,-0.0106329369682504,0.0149515189919229,1
0.065643310546875,-0.976699829101562,0.0559539794921875,-0.07864581015113,0.0483688643502371,-0.0627704405770586,1
0.1029052734375,-1.1641845703125,0.023834228515625,-0.0046938214212646,0.0117250993312919,-0.0395282347956101,1
0.0749053955078125,-0.909927368164062,-0.10101318359375,0.048363804344166,-0.0332855188843554,0.0272364147843494,1
0.077606201171875,-1.04483032226562,-0.048614501953125,0.0146918607856401,-0.0383902660618192,-0.0050815776759801,1
0.101394653320312,-1.02633666992188,-0.136032104492188,-0.0142716139656256,-0.0201145893972595,0.0201638578774259,1
-0.0135345458984375,-1.00294494628906,-0.0440521240234375,-0.0217708092791798,0.027793814400503,-0.0280161883515246,1
0.0584259033203125,-1.04362487792969,-0.0705718994140625,0.015058045435526,0.0201127251844964,0.000102265385859,1
-0.0152740478515625,-1.00263977050781,-0.0629425048828125,-0.0480114681319485,-0.0050056775849129,0.0037862161217656,1
0.02227783203125,-1.02168273925781,-0.120223999023438,-0.0462037143840027,0.0353987372093332,-0.0282859665699496,1
0.0530242919921875,-1.05442810058594,-0.131973266601562,-0.0159802981210205,0.0086145271780793,0.005145227226033,1
0.0250396728515625,-1.04426574707031,-0.17431640625,-0.0184386621232726,-0.0137056922339838,0.016906012915932,1
0.0359954833984375,-1.01951599121094,-0.144134521484375,-0.0319366277922302,-0.014685735515133,-0.0088187916336883,1
0.026214599609375,-1.05097961425781,-0.138137817382812,0.0095413072374268,0.0041936797685477,0.0054179349216572,1
0.0153961181640625,-1.01126098632812,-0.089080810546875,-0.0278894218836368,-0.0253477009392652,0.0008460862783181,1
0.0448760986328125,-0.995834350585938,-0.073486328125,0.0072906698002009,-0.0138750692793128,0.0043753073548911,1
0.104766845703125,-0.993896484375,0.0673065185546875,-0.0407429025687952,0.0438721168496383,-0.0335829939781172,1
0.0691070556640625,-0.953445434570312,0.145187377929688,-0.0125983498527288,0.0043350936224309,-0.0108023140135794,1
0.07464599609375,-0.962753295898438,0.1578369140625,-0.0034392062317283,-0.0169957614446677,0.008538360770903,1
0.0686187744140625,-0.963150024414062,0.249954223632812,-0.0086163913908423,-0.0052618736817785,0.0041902176591306,1
0.0612945556640625,-0.946502685546875,0.264022827148438,-0.0116907445532298,-0.0009880327644193,-0.0022495721727899,1
0.081512451171875,-0.923080444335938,0.404937744140625,0.0234201049422658,-0.0065351309989454,-0.0029419940562105,1
0.0985260009765625,-0.903717041015625,0.4544677734375,-0.0148942610284862,-0.0041585260421587,-0.0033404029552863,1
0.0533599853515625,-0.923919677734375,0.473037719726562,-0.0119237711486118,-0.0105581021416191,0.0095010935049666,1
0.026885986328125,-0.875473022460938,0.618545532226562,0.0237396842730753,0.0243096007463523,-0.0094156060339751,1
0.041900634765625,-0.84332275390625,0.59625244140625,0.0535090315701991,-0.0492740728047551,0.0315952105404821,1
0.0731658935546875,-0.85748291015625,0.550048828125,-0.0367521556753115,-0.0380517782872702,0.0189137700617427,1
0.135467529296875,-0.966323852539062,0.527755737304688,-0.077201311575871,-0.0090659329828477,0.0333518315954983,1
0.0945587158203125,-0.82440185546875,0.53704833984375,-0.022452045886022,-0.0030567762991929,-0.0727245377834478,1
0.109329223632812,-0.765274047851562,0.490631103515625,-0.0540962585905616,0.0120513365648266,-0.0091146688307961,1
0.227142333984375,-0.816497802734375,0.537185668945312,0.0457850654606423,-0.0768673511751751,0.11368581956163,1
0.0825042724609375,-0.855758666992188,0.613006591796875,0.0509108516107178,-0.0609536320814066,0.059320315384861,1
0.122482299804688,-0.916091918945312,0.524856567382812,-0.0463320787485445,0.0247753876210072,0.0527724012126832,1
0.112380981445312,-0.906051635742188,0.566253662109375,0.0156567240485758,0.0243695218708791,0.0363486867701645,1
0.079742431640625,-0.8988037109375,0.507247924804688,-0.0433477404310017,0.0449584202582817,0.0015725966236917,1
0.101119995117188,-0.914306640625,0.55712890625,-0.0121895546254017,0.037305826865939,-0.0226115692353178,1
0.0523529052734375,-0.72613525390625,0.5242919921875,-0.0090403666363829,-0.125452464205927,0.0471446091971277,1
0.0011444091796875,-0.736923217773438,0.457626342773438,-0.300315088748311,-0.0086968188557627,-0.0819521246444634,1
0.0857086181640625,-0.957855224609375,0.40435791015625,0.0221393907740467,0.11366158479571,-0.0768340616615491,1
0.017730712890625,-0.926849365234375,0.562576293945312,-0.12694676389357,-0.0842765316438845,-0.0298700147863287,1
-0.003570556640625,-0.889175415039062,0.482681274414062,0.0065987805489983,-0.0149387358186905,-0.0233505964378148,1
-0.0249481201171875,-0.945632934570312,0.474639892578125,0.0978850184980804,-0.180395075390915,0.0633081328011456,1
0.0364532470703125,-0.914749145507812,0.396148681640625,-0.072160480264569,-0.0909964860224815,0.0869255779801863,1
0.0905609130859375,-0.920318603515625,0.387924194335938,-0.0259881911814292,-0.0902374851118089,0.0596747821259505,1
0.111648559570312,-0.977493286132812,0.384185791015625,0.037608628281881,-0.076830599552132,0.0112454640189686,1
0.0583343505859375,-0.841476440429688,0.381378173828125,-0.036232040314419,-0.100813696748841,0.0244121324483203,1
0.0851593017578125,-0.955734252929688,0.383468627929688,0.076158151376887,-0.0823904809598904,0.0702962675015136,1
0.0714874267578125,-0.953842163085938,0.392715454101562,-0.0277501385586257,-0.0529969056925768,0.0531633532607068,1
0.118667602539062,-0.974960327148438,0.345230102539062,-0.0606590864648438,0.0142236770660042,0.004673315080871,1
0.096954345703125,-0.866729736328125,0.283294677734375,-0.100793989356774,0.0187361372170345,-0.017073525748498,1
0.0614013671875,-0.967422485351562,0.27056884765625,-0.0091711278459058,0.0372882500027445,-0.0097860517416051,1
0.0315704345703125,-0.953338623046875,0.216064453125,-0.062445534924069,-0.0038410772402212,0.0473502052332818,1
-0.02130126953125,-0.876480102539062,0.23443603515625,-0.0195665108449212,-0.0721948350426311,0.0671574658407462,1
0.069488525390625,-0.969696044921875,0.202468872070312,-0.0360232484849568,0.0544741611492438,-0.0612835977404674,1
-0.0379638671875,-0.9625244140625,0.19671630859375,-0.0127693247947119,-0.086073366431361,0.029945382245178,1
0.0191650390625,-0.95361328125,0.193084716796875,-0.0340913914302133,-0.0199904860904618,-0.0098933771335353,1
0.121368408203125,-0.936965942382812,0.179962158203125,0.031862059281708,-0.0108443919588027,0.0003542004249805,1
0.0233917236328125,-0.9354248046875,0.124435424804688,0.0096038915230437,-0.036232306630528,-0.0211324495658878,1
0.0919952392578125,-0.973251342773438,0.118988037109375,-0.045138183631862,-0.0379987813815776,0.0092318479187596,1
0.03875732421875,-1.01492309570312,0.068267822265625,-0.0172394406844099,-0.0094598145080704,0.0094438355415299,1
0.0028533935546875,-0.9669189453125,0.100692749023438,-0.0356767712271375,-0.0327398371769981,0.0210434999854791,1
0.0928192138671875,-0.970611572265625,0.071929931640625,-0.0172588817603675,0.0341443883359059,-0.0429133788572098,1
0.139450073242188,-0.973388671875,0.05621337890625,-0.0494916530658145,-0.0252036239242919,0.0230150381404648,1
0.0662841796875,-1.033935546875,0.02587890625,0.0328602120582697,-0.0119139174525785,0.0046320360839748,1
0.122146606445312,-1.01211547851562,0.022796630859375,0.035493013111922,0.0550832260905449,0.0044860948562384,1
0.0882415771484375,-1.03056335449219,0.011138916015625,0.0035883432527727,0.0446521567329226,-0.0043433494218102,1
0.03662109375,-0.935455322265625,0.072418212890625,-0.0713556729831471,0.0174852504530242,0.0098864529147011,1
0.0108795166015625,-0.964797973632812,0.0955963134765625,-0.0089732549769129,-0.0137658796746196,0.0255327906350257,1
-0.040283203125,-1.00265502929688,0.0530548095703125,-0.0188602405238322,0.0075657743408061,-0.0183382609501766,1
-0.0990142822265625,-0.978530883789062,0.121871948242188,-0.0658170968641093,0.107858290464318,-0.0340048386947858,1
0.07489013671875,-0.94915771484375,0.051422119140625,0.0056379120276977,0.0457035727312858,0.0020722056441906,1
0.0526580810546875,-1.02015686035156,0.0707244873046875,-0.02302169604319,-0.103019859395862,0.0693340673996679,1
-0.0409698486328125,-0.979385375976562,0.147247314453125,-0.0113149725234197,-0.123308353212304,0.0588441421819548,1
-0.142349243164062,-0.97393798828125,0.224868774414062,-0.0443022173656861,-0.201803694761844,0.0917616122036612,1
-0.06280517578125,-1.01776123046875,0.08551025390625,-0.0302559068282812,-0.0763925095528139,-0.0097085537538838,1
0.0180816650390625,-0.9703369140625,0.0320587158203125,-0.0402699251591972,-0.06355660573085,0.0285394995057251,1
-0.0173797607421875,-1.03036499023438,0.0695953369140625,-0.0306367388641625,-0.0880875151637879,0.0116420087052814,1
-0.0202178955078125,-1.01397705078125,0.0559539794921875,0.0578997852594127,-0.0727080261846893,0.009310144854808,1
0.1319580078125,-0.770645141601562,0.046356201171875,0.20132698892672,0.141190680983859,-0.237135053995599,1
0.132293701171875,-1.03150939941406,-0.026580810546875,0.0978016615559609,-0.110194415372536,0.0300734802936108,1
-0.20989990234375,-0.983001708984375,-0.1219482421875,0.0117232351185288,-0.257469087866681,0.169246284119517,1
-0.0766143798828125,-1.05036926269531,0.08526611328125,0.0087847031717353,-0.0022003036926234,-0.0979960723155367,1
0.073760986328125,-0.960922241210938,0.156646728515625,-0.0041457428689263,-0.0414630213275527,-0.0308556507057671,1
0.0836029052734375,-0.979095458984375,0.177017211914062,-0.0094188018272832,-0.019089272377579,-0.0224376648161356,1
0.149032592773438,-0.956329345703125,0.193710327148438,-0.0208445618520502,0.0054493602225201,-0.030081469776881,1
0.169219970703125,-0.951400756835938,0.262176513671875,-0.0021001688356364,0.0234171754650667,0.0105802063786668,1
0.146881103515625,-0.982009887695312,0.222824096679688,-0.0074592478972029,0.111736385643692,-0.0163579343635937,1
0.11138916015625,-0.960708618164062,0.278961181640625,0.0176943085985955,-0.0054293865143445,0.0268505227423969,1
0.206924438476562,-0.894073486328125,0.356399536132812,-0.0519862360588918,0.0907474804605591,-0.042348788706113,1
0.12469482421875,-0.904815673828125,0.343780517578125,0.0116428076536084,0.0414137528473862,0.0277338932759762,1
0.120437622070312,-0.909912109375,0.330474853515625,-0.0959443730117397,0.0336035003185108,0.0255863201729363,1
0.12933349609375,-0.899566650390625,0.365753173828125,-0.0101333279477515,0.0723990994982401,0.0018418422098988,1
0.071502685546875,-0.901443481445312,0.225250244140625,-0.0249615425812037,0.0405927002833148,0.0561490231587946,1
-0.0580596923828125,-0.952606201171875,0.233108520507812,-0.0337395878502139,-0.0986940868372465,0.0766766688411254,1
-0.0357818603515625,-1.00985717773438,0.0583648681640625,-0.0857625755321487,-0.0037031254957551,-0.0381860016062102,1
-0.121185302734375,-1.02548217773438,0.075103759765625,-0.0270683693195654,-0.0636474195240217,-0.0022453111150458,1
-0.0434112548828125,-1.00151062011719,0.03302001953125,-0.0291243296811066,-0.1891398311463,0.0790897591048462,1
0.02362060546875,-1.00010681152344,0.1029052734375,-0.0175078873222899,-0.0126588036094736,-0.0502586434597574,1
-0.02716064453125,-0.97955322265625,0.0337677001953125,-0.0244933588615678,-0.105145594577963,0.0202786401204084,1
0.043365478515625,-1.00674438476562,0.0509490966796875,-0.0179739405130538,-0.0083950827042567,-0.0140231410359212,1
0.0671539306640625,-1.00497436523438,0.0330352783203125,-0.0494298677285247,0.0311648437083253,-0.0283080708069973,1
0.025115966796875,-0.979904174804688,0.10675048828125,0.0032834113079586,-0.0095967009881005,-0.0116699718967272,1
0.0917205810546875,-0.984237670898438,0.103530883789062,-0.0305097060801658,0.002321743838331,-0.0259074974003998,1
0.07830810546875,-0.981735229492188,0.167465209960938,-0.0077141124135235,-0.0307973274778943,0.0021329257170444,1
0.09490966796875,-0.952163696289062,0.186569213867188,-0.030012227588539,-0.0263977853570834,-0.0002391518658891,1
0.103607177734375,-0.948501586914062,0.20458984375,-0.0030317425849462,0.013847372403976,-0.0043316315130138,1
0.0169525146484375,-0.99566650390625,0.217544555664062,-0.049945189399455,0.0152170361526038,0.0005155879870393,1
0.103790283203125,-0.93182373046875,0.199249267578125,-0.0013390373960918,-0.0287110070799262,0.0043252399263976,1
0.0887603759765625,-0.936737060546875,0.211380004882812,0.0021840584099739,-0.0063977118866973,-0.0074246268030319,1
0.112533569335938,-0.942733764648438,0.313674926757812,-0.0101040331757606,0.0372927773765976,-0.019391541161303,1
0.0257720947265625,-0.94580078125,0.281234741210938,-0.0475107938470136,0.0460481857763421,-0.0048701226854279,1
0.0220489501953125,-0.950637817382812,0.310211181640625,0.02937573208801,-0.0310364793437834,0.0153078499457755,1
0.0091400146484375,-0.919509887695312,0.3564453125,-0.0106332032843594,-0.0637472880648997,0.0416379910111709,1
0.034149169921875,-0.906967163085938,0.402175903320312,-0.0061106231211868,-0.0286739891407741,0.0415937825370756,1
0.093048095703125,-0.957977294921875,0.264007568359375,-0.0466138411918749,0.0003004045709609,-0.0175374484103898,1
0.037261962890625,-1.01860046386719,0.17572021484375,-0.0296886535160943,0.0225316744026154,0.0028365328770434,1
0.038604736328125,-0.916046142578125,0.224319458007812,-0.029844981072082,-0.0444731923076692,0.0552523368197649,1
0.081329345703125,-0.980224609375,0.282958984375,-0.0058602859787193,-0.0499547767793793,0.011797270996833,1
0.0990447998046875,-0.994735717773438,0.415817260742188,0.0532293996557408,-0.0748004718531646,0.0380555067127963,1
0.0818023681640625,-0.955398559570312,0.381973266601562,0.0526725326718052,0.0390126468085708,-0.0144883952783581,1
0.139846801757812,-0.931289672851562,0.36480712890625,0.0215076889634799,0.0594311028862083,0.0171262563380816,1
0.207962036132812,-0.891494750976562,0.455108642578125,0.0071295485542511,-0.0021702099723055,0.0224690901169985,1
0.09088134765625,-0.934539794921875,0.414535522460938,-0.0256054949327849,0.0342091031503948,0.0220400548653868,1
0.0711669921875,-0.888351440429688,0.4180908203125,-0.0384688293139766,0.0130175314083073,0.0166319736397629,1
0.0387420654296875,-0.906143188476562,0.364364624023438,-0.0114915401036919,-0.038212633217111,0.0404970928001809,1
-0.029052734375,-0.898300170898438,0.332626342773438,-0.0722752625075514,0.0270638419457122,0.0045212485826275,1
-0.01129150390625,-1.05458068847656,0.364501953125,0.128977157908647,-0.101890146461451,0.0133118107087611,1
-0.116043090820312,-0.917755126953125,0.37420654296875,-0.0371915772551746,-0.0731495782934245,0.03179441499002,1
-0.102081298828125,-0.964691162109375,0.33172607421875,0.074748540211908,-0.141950747158968,0.0629720418715776,1
0.0059814453125,-0.956710815429688,0.241592407226562,-0.0014247911831923,-0.0999724041604845,0.0492892528229685,1
-0.0317535400390625,-0.929428100585938,0.242233276367188,-0.0028991171626602,-0.0712475486428899,0.0172136080218362,1
0.0522308349609375,-0.984298706054688,0.227828979492188,-0.0644831194740886,-0.0793595373232712,-0.0004554005464035,1
0.085479736328125,-0.95892333984375,0.17193603515625,-0.0356104585159945,0.0821257627475365,-0.0762777273098315,1
-0.0146636962890625,-0.974563598632812,0.187530517578125,0.0238368896528632,-0.0193084505352925,-0.0402222545756847,1
-0.0183563232421875,-1.02751159667969,0.20819091796875,0.0363460236090744,0.0093362438334907,-0.0049830407156472,1
0.0887451171875,-0.984130859375,0.171600341796875,0.0164503460534195,0.0403122694205294,-0.0127301763266878,1
0.01641845703125,-0.942779541015625,0.162078857421875,-0.0660794182314821,0.0514810344001037,-0.0455903883849575,1
0.017181396484375,-0.960235595703125,0.159912109375,-0.0197910153248149,-0.0636926932625531,0.0106238822205441,1
0.113113403320312,-0.938095092773438,0.0961761474609375,-0.0339955176309705,-0.00722648761793,-0.0099253350666163,1
0.0154266357421875,-0.971176147460938,0.0254364013671875,-0.0037880803345287,-0.0361380307279392,0.0235111850515465,1
0.0586700439453125,-0.9468994140625,0.0632476806640625,-0.0236917473734539,-0.0179276015100864,0.0093996270674346,1
0.0096588134765625,-0.999496459960938,0.02545166015625,-0.0435408196100325,0.029004753748162,0.0069428609618365,1
0.0800933837890625,-1.02302551269531,0.0493316650390625,-0.0277575954096779,-0.0253500977842463,-0.0087484841809103,1
0.0120697021484375,-0.983428955078125,0.101119995117188,-0.0227109051439777,-0.03495398930729,0.0062549664522691,1
0.016632080078125,-0.99981689453125,0.0430450439453125,-0.0602383070126113,0.0312370153738664,-0.0166905631837446,1
0.0726318359375,-0.969863891601562,0.0275421142578125,-0.0175012294195647,0.0447869126840806,-0.0194866160122188,1
0.047637939453125,-1.01658630371094,0.0308990478515625,0.0033646377212061,0.0148694936303484,-0.004268780911288,1
0.07598876953125,-0.975479125976562,0.0348052978515625,0.0234334207477162,-0.0320668563695351,-0.0178029655710707,1
0.047607421875,-0.962127685546875,0.001190185546875,-0.019022693350327,0.0054411044231408,-0.0076723007844092,1
0.003692626953125,-0.96429443359375,0.09039306640625,0.0187004508584274,-0.0171371752985509,0.0247586097061397,1
0.0342559814453125,-1.04144287109375,0.007232666015625,-0.0671606616340543,-0.0027537085671419,0.0035843485111376,1
-0.015960693359375,-1.01556396484375,0.048187255859375,-0.0171901722042435,-0.0243540755365566,-0.0022455774311548,1
0.044586181640625,-1.00814819335938,0.029541015625,-0.040497891748508,0.0374847912911923,-0.0548882826987511,1
0.037750244140625,-0.996200561523438,-0.01800537109375,-0.0366610755660308,0.0417200163727453,-0.0218072945861138,1
-0.0062713623046875,-1.01258850097656,-0.027557373046875,-0.0212373781128369,-0.0136921101124244,-0.0119104553431614,1
0.0015411376953125,-1.00741577148438,-0.0459442138671875,0.0188788826514627,-0.0245871021319385,0.0077202376840307,1
0.0311279296875,-1.01423645019531,-0.0157318115234375,-0.0214277941307776,-0.0253905778328155,-0.0044187168806594,1
0.0512542724609375,-0.996002197265625,-0.0313568115234375,-0.0073905383410788,-0.0052717273778118,-0.0075255606083459,1
0.05364990234375,-1.01840209960938,-0.0323333740234375,-0.0076089175504653,-0.0148420630711206,0.0031590416850519,1
0.058349609375,-1.02529907226562,-0.05902099609375,-0.041977277734047,-0.0326998897606469,0.0145816059165109,1
0.0634765625,-0.988418579101562,-0.0338287353515625,-0.0279866272634247,-0.0402392988066613,-0.0001826928507794,1
0.0308074951171875,-1.02508544921875,-0.0330963134765625,-0.0056618804775084,-0.002086853030186,0.0234041259757254,1
0.0140533447265625,-1.01533508300781,-0.009185791015625,-0.0367929020399897,0.01831855355811,-0.0249468951952083,1
-0.000396728515625,-1.01765441894531,-0.0128021240234375,-0.0134074181918949,0.0149754874417336,-0.0236326251972542,1
0.061492919921875,-1.00238037109375,-0.0214691162109375,-0.026181536676569,0.0310157066872808,-0.0152750930643675,1
0.0581207275390625,-0.993911743164062,-0.0107879638671875,-0.0253125472128761,0.0225018469984065,-0.005648298355949,1
0.052825927734375,-1.01313781738281,-0.011138916015625,-0.0223473836551819,0.0192938031492971,0.0093173353897512,1
0.0152130126953125,-1.00550842285156,0.0016632080078125,-0.0246938948916507,-0.0115389443710953,0.0083066657560661,1
0.0067901611328125,-1.00984191894531,-0.0065155029296875,-0.0176703401487848,0.0320242457920938,-0.0141243411573442,1
0.021942138671875,-0.996414184570312,0.0176239013671875,-0.0193289568756861,-0.0041276333735138,0.0094086818151409,1
0.0422821044921875,-1.00071716308594,0.08575439453125,-0.0045132590993572,-0.0201801031600754,0.0074693679093452,1
0.037811279296875,-0.984573364257812,0.112991333007812,-0.0127235184239626,0.0032735576119254,-0.0022711437776195,1
0.0451202392578125,-0.98101806640625,0.114151000976562,-0.0211375095719589,0.0054546865447003,-0.0087602020897066,1
0.0458221435546875,-0.986770629882812,0.0743408203125,-0.0212866465930034,0.0012021509160617,-0.0002210423704765,1
0.0296478271484375,-0.996673583984375,0.1072998046875,-0.0001238369906886,-0.0106358664454495,0.0032248217639769,1
0.034698486328125,-0.994949340820312,0.10284423828125,-0.011729360389036,-0.0041787660664433,-0.0011755193051609,1
0.026275634765625,-0.977340698242188,0.108306884765625,-0.0171542195295274,-0.0137166111944531,0.0009259811110205,1
0.040863037109375,-0.964080810546875,0.213119506835938,-0.0117067235197703,-0.0031153658431746,-0.0022442458506097,1
0.041595458984375,-0.955032348632812,0.21246337890625,-0.0075170384928576,-0.0084608627831817,-5.51274345646402e-05,1
0.04736328125,-0.9698486328125,0.2122802734375,-0.0212200675657514,0.0022647521910033,-0.0044879590690015,1
0.040069580078125,-0.970291137695312,0.184219360351562,-0.0171515563684373,-0.0094614124047245,0.0030474552353776,1
0.0361328125,-0.975006103515625,0.129013061523438,-0.0160189139568266,-0.0062781359537528,-0.0001478054404993,1
0.0429229736328125,-0.981185913085938,0.128585815429688,-0.0191385408577454,-0.0041310954829309,-0.0044501421815224,1
0.042633056640625,-0.975143432617188,0.12847900390625,-0.0212347149517468,0.0022650185071123,-0.0034218956846428,1
0.0459747314453125,-0.975189208984375,0.128890991210938,-0.02117479382722,0.0043915526375406,-0.0066254121598991,1
0.0547027587890625,-0.95404052734375,0.190322875976562,-0.0159789665404754,-0.0009598032568645,-0.0001611212459497,1
0.0483551025390625,-0.978790283203125,0.167861938476562,-0.012838034350836,-0.0041710428992821,0.0020117518874458,1
0.04461669921875,-0.970870971679688,0.159820556640625,-0.0149688295390084,-0.0062847938564779,0.0009291769043286,1
0.04644775390625,-0.958419799804688,0.177078247070312,-0.0138961082519245,-0.0052280515359345,0.0009374327037078,1
0.0436248779296875,-0.973159790039062,0.161834716796875,-0.0159962770875609,-0.0052147357304841,-0.0012165319859482,1
0.048309326171875,-0.967514038085938,0.16961669921875,-0.0149927979888191,-0.0094757934746109,0.0009371663875988,1
0.04193115234375,-0.96533203125,0.170913696289062,-0.0170450299248341,-0.0030804784328946,-0.0012327772685976,1
0.04296875,-0.973358154296875,0.163711547851562,-0.0128779817671872,-0.0094893755961703,0.0020250676928962,1
0.0453948974609375,-0.967178344726562,0.16845703125,-0.0149302137032022,-0.003094060554454,-0.0001448759633003,1
0.0466156005859375,-0.969985961914062,0.16815185546875,-0.0138894503491993,-0.0062919843914212,-0.0001259675195607,1
0.0457763671875,-0.969970703125,0.166748046875,-0.0159962770875609,-0.0052147357304841,-0.0012165319859482,1
0.0450592041015625,-0.971649169921875,0.166763305664062,-0.0148942610284862,-0.0041585260421587,-0.0033404029552863,1
0.050018310546875,-0.9732666015625,0.171524047851562,-0.0128473554146513,-0.007362308833524,0.0009536779863573,1
0.041900634765625,-0.967071533203125,0.173171997070312,-0.0170903036633655,-0.0052072788794319,0.0009046758222999,1
0.04876708984375,-0.971054077148438,0.165481567382812,-0.0159576612517548,-0.0020240024284602,-0.0022905848535771,1
0.0386505126953125,-0.969940185546875,0.169967651367188,-0.0191451987604706,-0.0030671626274442,-0.0033867419582537,1
0.054046630859375,-0.96722412109375,0.182235717773438,-0.011729360389036,-0.0041787660664433,-0.0011755193051609,1
0.040313720703125,-0.961074829101562,0.245941162109375,-0.0054075485934058,-0.0052829126543901,0.0031569111561799,1
0.0532684326171875,-0.954635620117188,0.255233764648438,-0.0139280661850054,-0.0094827176934451,0.0009480853480682,1
0.073211669921875,-0.9254150390625,0.318405151367188,-0.0019590212978622,0.0032021848947112,-0.0106904612477961,1
0.0919189453125,-0.926483154296875,0.3441162109375,-0.0103117597407868,0.0213393771825869,-0.0129552134387995,1
0.091949462890625,-0.922286987304688,0.361160278320312,-0.0123586653546217,0.0479470196335686,-0.0045151233121203,1
0.0755157470703125,-0.947128295898438,0.36785888671875,-0.0153318183955862,0.0617933267731086,-0.0131110083625691,1
0.113113403320312,-0.90484619140625,0.339752197265625,-0.0099855225072521,0.0745240357320143,-0.0077580545715098,1
0.096954345703125,-0.943588256835938,0.346710205078125,-0.022149777102298,0.117148461610951,-0.0293168762279193,1
0.122909545898438,-0.908203125,0.33453369140625,-0.0345430635510908,0.144883686467472,-0.0423099065541979,1
0.210723876953125,-0.967849731445312,0.32806396484375,-0.005041630259629,0.202128866730943,-0.0656122997762822,1
0.061126708984375,-1.14328002929688,0.270095825195312,-0.0159366222791432,0.239436025177427,-0.0274364181822143,1
0.1632080078125,-0.964752197265625,0.262054443359375,0.0649568958320137,0.295279850075299,-0.0715333058278554,1
0.385101318359375,-0.979949951171875,0.283050537109375,0.0742031248206598,0.30053027216439,-0.121564249014411,1
0.295089721679688,-0.846542358398438,0.381912231445312,0.0663207006262433,0.265493192231089,-0.0319925541751219,1
0.259536743164062,-1.12908935546875,0.23089599609375,0.0701868115807113,0.398449112808314,0.0689942480445738,1
-0.0550689697265625,-1.02607727050781,0.263641357421875,-0.0623395411126838,0.335463222499068,-0.0857348786568119,1
0.183761596679688,-0.932144165039062,0.285507202148438,-0.0011265171411035,0.305272296801385,-0.139407162001833,1
0.171310424804688,-1.13352966308594,0.297805786132812,0.125155788060492,0.334242695771485,-0.0912755853047218,1
0.021881103515625,-0.825286865234375,0.405120849609375,-0.225092505862369,0.406719026941337,-0.137697146265893,1
0.143417358398438,-0.904327392578125,0.4136962890625,-0.073838804383537,0.38019074669084,-0.232039361565841,1
0.451873779296875,-0.90118408203125,0.150436401367188,-0.136349054122095,0.499740580656715,-0.190339318901271,1
0.351043701171875,-0.833831787109375,0.252914428710938,-0.0690259396615458,0.563128608290563,-0.172754199907369,1
0.449066162109375,-0.903167724609375,0.247634887695312,-0.122703283012638,0.479441700512022,-0.186948582201382,1
0.25,-0.990753173828125,0.387908935546875,-0.0316719095798763,0.323576735605718,0.0009731190623149,1
0.313644409179688,-0.882095336914062,0.204940795898438,-0.0131288515418726,0.43833021644836,-0.046046587879688,1
0.286270141601562,-0.925811767578125,0.251495361328125,-0.106395149761429,0.388932572969025,-0.105515773969484,1
0.2210693359375,-0.902450561523438,0.234024047851562,-0.0472487387957498,0.309843879128615,-0.0354021993187503,1
0.243377685546875,-0.961318969726562,0.15570068359375,-0.0589083243642257,0.304587598085126,-0.119738918403271,1
0.159652709960938,-0.854400634765625,0.26434326171875,-0.103685649668382,0.386792989349255,-0.0713636624664173,1
-0.0328216552734375,-1.0194091796875,0.307571411132812,-0.0057521616384621,0.264894247301931,-0.0572518381661964,1
-0.0830535888671875,-0.988983154296875,0.207077026367188,0.0401841713720966,0.0625067876291408,0.0546270265958143,1
-0.136871337890625,-0.76312255859375,0.305160522460938,-0.0457501780503622,0.0066800069622457,0.0005805691176372,1
-0.099090576171875,-1.16673278808594,0.098358154296875,0.0331220007934245,0.15505003761274,-0.233561890761039,1
-0.108901977539062,-0.672622680664062,0.206146240234375,-0.0606628148903699,0.138652422148904,-0.159844792839319,1
-0.102951049804688,-0.79693603515625,0.0933837890625,0.0230200981465359,-0.0650250727559197,0.0718398356693235,1
-0.0612945556640625,-1.04289245605469,0.610992431640625,-0.207961189518217,-0.248602093017262,0.118994564878594,1
0.0817413330078125,-0.883682250976562,0.29486083984375,0.0408041552738671,-0.0747237728137703,0.0123389579625551,1
0.0236053466796875,-0.928314208984375,0.317352294921875,-0.116358834347742,0.0475555349533269,-0.0311680395016334,1
0.01708984375,-1.03742980957031,0.26727294921875,0.170730730111127,-0.134078709292802,-0.0202964832997119,1
0.111541748046875,-0.970687866210938,0.146133422851562,0.0854081087910592,0.0196418783037704,-0.0823409461636149,1
0.119125366210938,-1.06449890136719,0.485519409179688,-0.195084805647683,-0.0221199496980891,0.080158219334186,1
0.0755462646484375,-0.990890502929688,0.128097534179688,-0.0323960230802689,-0.0114859474654027,0.0263533105668791,1
0.0923614501953125,-0.986129760742188,0.119552612304688,-0.0167779148674992,-0.0371148782157803,0.0383077080680268,1
0.14727783203125,-0.81951904296875,0.218185424804688,-0.184956537706003,0.0862917456407475,-0.0554270401872741,1
0.22845458984375,-0.92138671875,0.117706298828125,-0.0669223087164922,-0.0197790310999095,-0.0230246255203891,1
0.0413360595703125,-0.970932006835938,0.1138916015625,-0.223777170599979,0.259926386604497,-0.080795513783042,1
0.237838745117188,-1.08734130859375,0.185562133789062,0.104723749861295,0.107810886196915,-0.0450532287930885,1
-0.0740814208984375,-0.912155151367188,0.07025146484375,-0.0688006362333251,-0.0325230558642657,0.0292335192857998,1
-0.0819854736328125,-1.03260803222656,0.0569610595703125,-0.0142814676616589,-0.0403143999494015,0.0873873701132061,1
-0.0363922119140625,-1.02818298339844,0.0574951171875,0.0348085807117717,-0.0438388273360124,0.0004695153001809,1
-0.228759765625,-1.110595703125,-0.144607543945312,0.0290313853590628,-0.143806704122644,-0.0984895560655284,1
0.232879638671875,-0.932159423828125,-0.099151611328125,0.0955992273344654,-0.515404495240234,0.357358135085046,1
0.0282745361328125,-0.956161499023438,-0.0101470947265625,-0.084326865388487,-0.0356187143153738,-0.0050363039374488,1
0.371368408203125,-0.759963989257812,-0.019989013671875,-0.232756817163508,0.0047002130078808,-0.0311829532037378,1
0.104537963867188,-0.996841430664062,-0.00360107421875,0.072461417467748,-0.187665505166832,0.127039441899505,1
-0.001068115234375,-1.00830078125,-0.0499267578125,-0.0186104360135827,-0.0424254877455073,0.013779728112288,1
0.021942138671875,-1.05784606933594,-0.126373291015625,0.00315957431727,-0.0436364270931663,-0.0211793212010732,1
0.007598876953125,-1.06147766113281,-0.145858764648438,0.0235892156714859,-0.0054743939367668,-0.0146713544452465,1
0.022735595703125,-1.03237915039062,-0.1549072265625,-0.0275197751243338,-0.0476820351051057,0.0392912134585931,1
0.029296875,-1.05226135253906,-0.129241943359375,-0.0174138777358101,-0.007329019319898,0.0232973332160132,1
0.0315704345703125,-1.03675842285156,-0.106491088867188,-0.0236504683765577,-0.0338855290779502,-0.00228712274416,1
0.05072021484375,-1.01455688476562,-0.003448486328125,-0.0051825114812942,0.0032234901834319,-0.0085910913604866,1
0.043914794921875,-1.01258850097656,0.0611114501953125,-0.017172861657158,-0.0083972132331288,0.005176918843005,1
0.040863037109375,-0.92938232421875,0.265167236328125,0.0054568170735723,0.0020905814557122,-0.0084792385947032,1
0.0533905029296875,-0.956192016601562,0.172286987304688,-0.0200235092879788,0.0022554311271881,-0.0140716105677607,1
0.0608062744140625,-0.96600341796875,0.200271606445312,-0.005444832848667,-0.0063460465615498,0.0052917010859874,1
0.0501556396484375,-0.965408325195312,0.213851928710938,-0.0116547918785138,-0.002052498252124,-0.005445099164776,1
0.06317138671875,-0.964935302734375,0.193344116210938,-0.0159816297015655,-0.0052150020465931,-0.0022825953703069,1
0.058929443359375,-0.960861206054688,0.201828002929688,-0.0149461926697427,-0.0052213936332093,-0.0001395496411201,1
0.0599517822265625,-0.962417602539062,0.203659057617188,-0.0160335613428221,-0.0062778696376437,0.0009182579438593,1
0.05694580078125,-0.9627685546875,0.1964111328125,-0.0170676667940998,-0.0041438786561632,-0.0001640507231488,1
0.0627593994140625,-0.957778930664062,0.208541870117188,-0.0149315452837473,-0.0052216599493183,-0.0012056130254788,1
0.05767822265625,-0.963104248046875,0.198715209960938,-0.0149315452837473,-0.0052216599493183,-0.0012056130254788,1
0.060760498046875,-0.963638305664062,0.200332641601562,-0.0149315452837473,-0.0052216599493183,-0.0012056130254788,1
0.0618438720703125,-0.961929321289062,0.20367431640625,-0.0149315452837473,-0.0052216599493183,-0.0012056130254788,1
0.0583343505859375,-0.9615478515625,0.199798583984375,-0.0149315452837473,-0.0052216599493183,-0.0012056130254788,1
0.0595550537109375,-0.964248657226562,0.202880859375,-0.0149315452837473,-0.0052216599493183,-0.0012056130254788,1
0.05853271484375,-0.962051391601562,0.199874877929688,-0.0138348555468526,-0.0009739180106419,-0.0012053467093698,1
0.058074951171875,-0.962814331054688,0.202377319335938,-0.0170516878275593,-0.002016545577408,-0.000169377045329,1
0.05987548828125,-0.964797973632812,0.20025634765625,-0.0138734713826588,-0.0041646513126659,-0.0001312938417409,1
0.058807373046875,-0.963409423828125,0.2021484375,-0.0149395347670175,-0.006285326488696,-0.0012029498643887,1
0.0590362548828125,-0.962860107421875,0.199722290039062,-0.0181323985979135,-0.004136954437329,-0.0001749696836182,1
0.0599365234375,-0.96148681640625,0.202499389648438,-0.0160042665708312,-0.0062784022698618,-0.0012138688248581,1
0.059539794921875,-0.963623046875,0.20379638671875,-0.013881460865929,-0.0052283178520435,-0.0001286306806508,1
0.0601806640625,-0.961013793945312,0.197525024414062,-0.0138907819297443,-0.0084195837862855,-0.0011867045817393,1
0.0577239990234375,-0.962127685546875,0.199905395507812,-0.0160109244735564,-0.0052144694143751,-0.0001504686015894,1
0.059814453125,-0.96185302734375,0.199752807617188,-0.0149461926697427,-0.0052213936332093,-0.0001395496411201,1
0.056915283203125,-0.96258544921875,0.202957153320312,-0.0149382031864725,-0.0041577270938317,-0.0001422128022102,1
0.057708740234375,-0.961105346679688,0.20281982421875,-0.0160042665708312,-0.0062784022698618,-0.0012138688248581,1
0.059539794921875,-0.963058471679688,0.199081420898438,-0.0106712864879475,-0.0031217574297908,-0.000101200121423,1
0.0568389892578125,-0.9615478515625,0.203262329101562,-0.0149461926697427,-0.0052213936332093,-0.0001395496411201,1
0.06060791015625,-0.965042114257812,0.198272705078125,-0.0117613183221169,-0.0084334322239539,-0.0011648666608006,1
0.05926513671875,-0.964828491210938,0.201675415039062,-0.0149461926697427,-0.0052213936332093,-0.0001395496411201,1
0.0584716796875,-0.964569091796875,0.200531005859375,-0.0170823141800953,-0.0041436123400542,0.0009020126612098,1
0.05926513671875,-0.965072631835938,0.200927734375,-0.0127781132263092,-0.0020445087688538,-0.0011917645878104,1
0.057037353515625,-0.967483520507812,0.203460693359375,-0.0170450299248341,-0.0030804784328946,-0.0012327772685976,1
0.059600830078125,-0.961944580078125,0.203521728515625,-0.0149688295390084,-0.0062847938564779,0.0009291769043286,1
0.05908203125,-0.966659545898438,0.202911376953125,-0.0191758251130065,-0.0051942293900905,-0.0023153522517148,1
0.058807373046875,-0.963790893554688,0.202804565429688,-0.0149382031864725,-0.0041577270938317,-0.0001422128022102,1
0.0581207275390625,-0.962875366210938,0.203628540039062,-0.0149315452837473,-0.0052216599493183,-0.0012056130254788,1
0.0592803955078125,-0.963287353515625,0.203033447265625,-0.011797270996833,-0.0073689667362492,0.0020306603311854,1
0.0583953857421875,-0.96148681640625,0.203903198242188,-0.0159802981210205,-0.0030874026517288,-0.0012218583081283,1
0.0598297119140625,-0.962356567382812,0.201309204101562,-0.0170610088913746,-0.0052078115116499,-0.0012274509464175,1
0.0573883056640625,-0.961456298828125,0.20794677734375,-0.0149768190222786,-0.0073484603958556,0.0009318400654187,1
0.0596160888671875,-0.962188720703125,0.199447631835938,-0.0138668134799336,-0.0052285841681525,-0.0011946940650095,1
0.060272216796875,-0.96441650390625,0.201431274414062,-0.0149528505724679,-0.0041574607777227,0.0009238505821484,1
0.059844970703125,-0.963287353515625,0.204803466796875,-0.014923555800477,-0.0041579934099407,-0.0012082761865689,1
0.056793212890625,-0.959197998046875,0.20025634765625,-0.0149608400557381,-0.0052211273171003,0.0009265137432385,1
0.0583343505859375,-0.961090087890625,0.200164794921875,-0.013881460865929,-0.0052283178520435,-0.0001286306806508,1
0.05841064453125,-0.96380615234375,0.202438354492188,-0.0128460238341062,-0.0052347094386597,0.0020144150485359,1
0.058990478515625,-0.961990356445312,0.20135498046875,-0.0117599867415719,-0.0063058328290896,-0.000104129598622,1
0.058929443359375,-0.96099853515625,0.20208740234375,-0.0139040977351947,-0.0062917180753122,0.0009400958647979,1
0.0568389892578125,-0.96484375,0.199188232421875,-0.0138668134799336,-0.0052285841681525,-0.0011946940650095,1
0.06036376953125,-0.963760375976562,0.1968994140625,-0.0160242402790068,-0.0030866037034018,0.0019763318449478,1
0.0569915771484375,-0.961380004882812,0.199539184570312,-0.0170610088913746,-0.0052078115116499,-0.0012274509464175,1
0.058502197265625,-0.9637451171875,0.198165893554688,-0.0171142721131762,-0.0083982784975648,0.0009126653055701,1
0.0578460693359375,-0.959976196289062,0.198516845703125,-0.014923555800477,-0.0041579934099407,-0.0012082761865689,1
0.0589752197265625,-0.964935302734375,0.203994750976562,-0.0149461926697427,-0.0052213936332093,-0.0001395496411201,1
0.0574798583984375,-0.96624755859375,0.200637817382812,-0.0106646285852223,-0.0041856902852775,-0.0011646003446916,1
0.061920166015625,-0.961639404296875,0.195404052734375,-0.0159962770875609,-0.0052147357304841,-0.0012165319859482,1
0.0576629638671875,-0.96160888671875,0.206329345703125,-0.0171275879186266,-0.0062704127865915,0.0030394657521074,1
0.0600433349609375,-0.96514892578125,0.197189331054688,-0.0138668134799336,-0.0052285841681525,-0.0011946940650095,1
0.0569000244140625,-0.966796875,0.20068359375,-0.0149541821530129,-0.006285060172587,-0.00013688648003,1
0.0604095458984375,-0.959060668945312,0.207122802734375,-0.018148377564454,-0.0062642875160843,-0.000169643361438,1
0.0545501708984375,-0.962203979492188,0.2086181640625,-0.0160588613731778,-0.011596468650641,-0.000134489635049,1
0.061370849609375,-0.962387084960938,0.202850341796875,-0.0149062452533915,9.69390636788843e-05,-0.0001528654465705,1
0.057952880859375,-0.963088989257812,0.20379638671875,-0.0128327080286558,-0.007362575149633,-0.0001123853980013,1
0.063018798828125,-0.96551513671875,0.194992065429688,-0.0106499811992269,-0.0041859566013865,-0.0022306637290503,1
0.0563507080078125,-0.963134765625,0.205429077148438,-0.0181630249504494,-0.0062640211999753,0.0008964200229206,1
0.060943603515625,-0.962814331054688,0.202117919921875,-0.0149075768339366,-0.0020306603311854,-0.0012136025087491,1
0.061370849609375,-0.96234130859375,0.201416015625,-0.0149475242502877,-0.0073489930280736,-0.0012002867032987,1
0.0553436279296875,-0.962921142578125,0.205581665039062,-0.0160109244735564,-0.0052144694143751,-0.0001504686015894,1
0.062408447265625,-0.963211059570312,0.199493408203125,-0.0128313764481108,-0.0052349757547687,0.0009483516641772,1
0.0552978515625,-0.962966918945312,0.203659057617188,-0.0182003092057105,-0.007327155107135,0.0030312099527281,1
0.067657470703125,-0.9649658203125,0.235092163085938,-0.0192677041706143,-0.0115754296780294,0.0008988168679017,1
0.074493408203125,-0.92889404296875,0.399551391601562,0.0308599117635112,-0.0044557348198115,-0.0007387608863879,1
0.0666656494140625,-0.901275634765625,0.415267944335938,-0.0033673008822961,-0.019124692420077,0.0021473067869308,1
0.08221435546875,-0.922088623046875,0.405914306640625,-0.0244542103935436,-0.0030328078493822,-0.0045074001449591,1
0.0399169921875,-0.916595458984375,0.42376708984375,-0.0110214921712929,-0.0243916261079267,0.0138108870970419,1
0.158615112304688,-0.832077026367188,0.423690795898438,-0.0961129511087417,0.096359027193465,-0.0054975634382505,1
0.0819549560546875,-0.8662109375,0.41583251953125,-0.0687756025190783,0.0865985417983246,-0.0627680437320776,1
0.139297485351562,-0.882293701171875,0.384750366210938,-0.0330128111887312,0.0650948475764798,-0.0420883315515033,1
0.047943115234375,-0.914520263671875,0.472259521484375,-0.0340993809134836,-0.0093522228000312,-0.0035236284382838,1
0.0924224853515625,-0.911239624023438,0.348251342773438,-0.0209183314142454,-0.0700675019638757,0.011695005610974,1
-0.07843017578125,-0.936233520507812,0.425369262695312,-0.0456790716492571,-0.24858638036683,0.166503228196735,1
0.0798187255859375,-0.904922485351562,0.35382080078125,0.0335739392304109,0.0401998840225281,-0.0189518532653309,1
0.071990966796875,-0.980560302734375,0.303085327148438,-0.0378389917161728,-0.0103977798439964,-0.0419429229559849,1
0.108917236328125,-0.951553344726562,0.25311279296875,-0.0427711660549996,0.0768622911691039,-0.0230267560492611,1
0.0993499755859375,-0.863418579101562,0.299774169921875,-0.015358450006487,0.0426451985354388,-0.0215915785378174,1
0.0602569580078125,-1.01390075683594,0.253677368164062,-0.0328583478455066,0.112963570274,-0.0272832864195348,1
0.093658447265625,-0.963531494140625,0.341949462890625,-0.0699500565598033,0.0238549991482758,-0.0114398747785444,1
-0.0227508544921875,-0.85980224609375,0.289215087890625,-0.0414499718382113,0.0609059614978942,0.0271400083528885,1
0.054290771484375,-0.921844482421875,0.32440185546875,-0.0368048862648951,0.0108720888341395,-0.0281264432206539,1
0.221099853515625,-0.882080078125,0.240631103515625,-0.141392548594487,0.0753589367337542,-0.131720213831428,1
0.115768432617188,-0.95782470703125,0.26702880859375,-0.0051337756333457,-0.0637851049523788,0.0288998252012129,1
0.0919342041015625,-0.900894165039062,0.308685302734375,0.0289629421190477,-0.0352842212824598,0.0430361505834625,1
0.04156494140625,-0.971328735351562,0.34478759765625,-0.057271811874372,0.0184546410898131,-0.0070312779100272,1
0.159393310546875,-1.01356506347656,0.340179443359375,-0.0923640192422372,-0.0047215182966014,-0.023323964826914,1
0.0104217529296875,-0.955459594726562,0.356307983398438,-0.0155573881399159,-0.0222312698316545,0.0350831526201588,1
-0.1912841796875,-0.870330810546875,0.359344482421875,0.0374182122639403,-0.111932926932139,0.0060030314131476,1
0.007598876953125,-0.85736083984375,0.305130004882812,-0.0397767077253145,0.0385479251983519,-0.0292945056747626,1
0.0189971923828125,-0.955810546875,0.360443115234375,-0.168105119592418,-0.0255034958630348,-0.0251120111827932,1
0.0164947509765625,-0.996200561523438,0.359451293945312,-0.103957558415679,0.0091820468063752,-0.0245447578706063,1
-0.0432281494140625,-0.953094482421875,0.146286010742188,0.143474341618602,0.0256528992001883,-0.0423120370830699,1
0.051300048828125,-1.10102844238281,0.253143310546875,-0.0769975797524799,-0.0346011204628545,0.0046320360839748,1
0.0614471435546875,-0.778900146484375,0.326309204101562,-0.238325487002864,-0.0239836298289266,-0.0290335158879348,1
0.02142333984375,-0.940689086914062,0.2969970703125,-0.136760246194403,-0.106537628879748,0.0521854405084297,1
-0.033721923828125,-0.805496215820312,0.286590576171875,-0.0519508160163937,-0.0092390384537028,-0.0218323283003606,1
-0.013214111328125,-0.960830688476562,0.232879638671875,0.0004082625951091,-0.0542493903532411,0.0182698177101616,1
-0.003326416015625,-0.849563598632812,0.235671997070312,-0.149545283639547,0.0179867236862862,-0.0346301489187364,1
-0.026031494140625,-0.934661865234375,0.30841064453125,-0.0432832919326218,0.128985946340244,-0.0348948671310902,1
-0.0694732666015625,-1.056396484375,0.1939697265625,-0.0766255361481959,0.0611227428106266,-0.0478556732081789,1
-0.188262939453125,-0.931640625,0.350601196289062,-6.81769239060285e-05,0.0872089383201708,-0.102582302028762,1
-0.064544677734375,-0.964187622070312,0.223342895507812,-0.112140387181057,0.0134990309333936,0.0308034527484015,1
-0.0212554931640625,-1.03385925292969,0.14990234375,0.0896457307175933,-0.061235128208628,-0.12473740545324,1
-0.008697509765625,-1.00814819335938,0.265945434570312,0.151899518043177,0.0457991802144197,-0.101985753944584,1
0.008575439453125,-0.947479248046875,0.200469970703125,-0.0196786299268135,0.0735245513749076,-0.0003912183641326,1
0.103225708007812,-1.13302612304688,0.089508056640625,-0.0130638704112747,-0.487025584348241,0.453197845865945,1
0.0410308837890625,-0.868804931640625,0.225616455078125,0.0243141281202054,0.17428418595362,-0.0471142491607008,1
-0.8782958984375,-0.998733520507812,0.222579956054688,0.0720848464896108,0.987629561830359,-0.60102299375741,1
-0.262191772460938,-1.13006591796875,0.390457153320312,-0.0636311742413722,0.0971928629307688,-0.121384485640831,1
0.03302001953125,-0.94525146484375,0.126434326171875,-0.0449573549938456,0.107715278713781,-0.0796381039732935,1
-0.159194946289062,-0.715789794921875,0.3179931640625,-0.0168652665512538,-0.008402805871418,-0.0172104122285281,1
0.745254516601562,-0.933380126953125,0.0956878662109375,-0.217267605947498,0.603369504993878,-0.677628822513539,1
-0.0306549072265625,-0.967758178710938,0.429443359375,0.154206614495512,-0.447714663497581,0.314068717881917,1
-0.0516815185546875,-1.10580444335938,0.296417236328125,-0.0023358585921085,-0.0255138821912861,0.0011081413295819,1
0.086517333984375,-0.932632446289062,0.3289794921875,-0.154129915456118,0.0637518154387528,-0.0635829710256418,1
0.120941162109375,-0.849029541015625,0.258895874023438,-0.306148210483912,0.0945243755185094,-0.0662850142676362,1
0.079559326171875,-0.970169067382812,0.182083129882812,-0.147206495570239,-0.0660471939822921,0.0594374944728245,1
0.0439910888671875,-0.906478881835938,0.233810424804688,-0.121278225513336,0.057169546488513,0.0220674854246146,1
-0.013214111328125,-0.842803955078125,0.253036499023438,0.0756148665145108,-0.107912086318338,0.0959457045922847,1
-0.0330047607421875,-0.94012451171875,0.385177612304688,0.0860691053736169,-0.112233065186991,0.107792244069284,1
-0.0904083251953125,-0.881317138671875,0.235107421875,-0.0733756806699722,-0.190985135465615,0.043456397403477,1
0.0286102294921875,-1.17243957519531,0.194320678710938,0.0687353887866181,-0.0015177355052361,-0.0430071221275806,1
0.0250091552734375,-0.934402465820312,0.425872802734375,-0.109385879665588,0.0336738077712889,-0.0811728837095062,1
0.260269165039062,-1.28334045410156,0.0384674072265625,0.197484313789845,0.134840373364565,-0.193443233151759,1
0.303558349609375,-0.717193603515625,0.165054321289062,-0.250173890692627,0.0463190292592031,0.0964770052297555,1
0.170394897460938,-0.9139404296875,0.40838623046875,0.04943918879234,0.0890457205239984,0.0930370000497002,1
-0.265121459960938,-1.09457397460938,-0.017425537109375,-0.0223524436612531,0.153296878667141,-0.149894424058456,1
-0.0210723876953125,-1.15255737304688,0.06884765625,0.456806961775221,-0.1210169694104,0.170252426379349,1
0.629791259765625,-0.844863891601562,0.343765258789062,-0.082309787178861,-0.743992400033332,0.470211450489916,1
0.49212646484375,-0.785629272460938,0.152908325195312,-0.0914300486479464,-0.215323498351741,0.104108559649487,1
0.21435546875,-1.01860046386719,0.0633087158203125,0.115703696719583,-0.181583910501527,0.005918076574374,1
0.029022216796875,-0.623916625976562,0.385894775390625,-0.248521665552341,-0.112181666177953,0.122492094338195,1
-0.09588623046875,-1.23255920410156,0.280487060546875,0.362769678420087,-0.267207469024773,0.114223778101826,1
-0.0551605224609375,-1.3365478515625,0.251510620117188,-0.434569832989168,-0.0248435645449132,-0.0854174298548745,1
0.72607421875,-1.38766479492188,0.1241455078125,0.191096455599181,0.677351321127952,-0.363370487562009,1
0.0673675537109375,-1.03321838378906,0.18304443359375,-0.211229154491853,-0.0092720616512198,-0.0554494107404308,1
0.111923217773438,-1.095458984375,0.185928344726562,0.0036242959274888,0.0084819017557933,-0.0266401330162806,1
-0.170455932617188,-1.21084594726562,-0.030517578125,0.187217028839262,-0.106532835189786,-0.0425892721525472,1
0.2193603515625,-0.951507568359375,-0.17132568359375,0.0556946878768271,-0.284366482244263,0.0546147760548,1
0.277633666992188,-0.863082885742188,0.294296264648438,0.143685796609154,-0.164735954497358,0.0712001443754865,1
0.0973052978515625,-0.701370239257812,0.21441650390625,-0.282737160289352,0.0061007694251535,0.0418704849743348,1
0.09832763671875,-1.18038940429688,0.355819702148438,0.0836834456691239,0.0813494512897784,-0.0782529938903433,1
-0.0400238037109375,-1.0428466796875,0.281173706054688,-0.0100760699843148,0.0585685050091316,-0.009850233923876,1
0.207672119140625,-0.956192016601562,-0.0154266357421875,0.0172133417057272,0.0775318098671498,-0.0480034786486783,1
-0.108642578125,-0.470993041992188,0.307769775390625,0.0496474479895842,0.145411524995525,0.0310532572586509,1
-0.0120086669921875,-1.60560607910156,0.385498046875,-0.305257116783171,-0.105463576012119,-0.0849516429802196,1
0.0708160400390625,-0.804031372070312,0.122756958007812,0.0651039023241861,-0.0727519683426756,0.0275096551121915,1
0.0313568115234375,-1.2596435546875,0.2532958984375,0.0430835548508659,-0.0736641010160278,0.0795310448974723,1
-0.0389862060546875,-0.890228271484375,0.171417236328125,0.100560163813065,0.0684882474374588,0.0040514669663375,1
0.0439910888671875,-1.12623596191406,0.135971069335938,0.177708478483243,-0.0511412150450096,0.0595269766854511,1
-0.127288818359375,-0.884384155273438,0.2740478515625,-0.0498224176732024,-0.136885414765637,0.0638159976210237,1
-0.10821533203125,-1.00616455078125,0.239334106445312,0.0222302045672184,-0.0543974621098495,-0.0198900849173658,1
-0.0451202392578125,-1.000732421875,0.224960327148438,-0.0308692328273265,-0.0689471100932794,-0.0385218262196692,1
-0.020263671875,-1.02998352050781,0.214630126953125,0.0251559533407795,0.0242962849409019,-0.0349902082981151,1
-0.0448455810546875,-0.981063842773438,0.1173095703125,-0.0369822527934943,0.122550683882176,-0.109448730267313,1
0.0003662109375,-1.03024291992188,0.197860717773438,0.121156785367629,0.0853585739947837,-0.0906742435305819,1
0.0853118896484375,-1.032958984375,0.270111083984375,-0.0831553408249612,-0.131345773382163,0.0901157786499922,1
0.072509765625,-1.021484375,0.151718139648438,0.0719008220582863,0.120787937556653,-0.0518200548068708,1
0.228073120117188,-1.03189086914062,0.145477294921875,0.0146436575699097,0.197751961479398,-0.0280819684304495,1
-0.0848541259765625,-1.00456237792969,0.2679443359375,-0.0954242576508472,-0.0993699971219086,-0.0071178306454547,1
-0.004180908203125,-0.996490478515625,0.128463745117188,-0.0118470721092175,-0.0913967591343204,0.0374320607016087,1
-0.136184692382812,-0.99896240234375,0.208450317382812,0.0685186074738857,-0.111061540623465,0.068159613358943,1
-0.032684326171875,-1.10111999511719,0.197357177734375,0.0942146498837332,-0.0942093235615531,0.0673129944484068,1
-0.02447509765625,-0.898834228515625,0.0914459228515625,-0.0424369393381946,0.142812546087717,-0.0114651748089001,1
0.090118408203125,-0.84173583984375,0.143508911132812,0.115366806841688,-0.169875855401211,0.0368046199487861,1
-0.198944091796875,-0.879974365234375,0.381729125976562,0.270677567925147,0.0939800253916972,0.0377138231449391,1
-0.141510009765625,-0.904281616210938,0.108749389648438,-0.143862364189426,-0.21711953419089,0.0438683884241122,1
0.0302886962890625,-1.12760925292969,0.224624633789062,0.116925555027711,-0.117764983403304,0.0292226003253305,1
0.01666259765625,-1.02560424804688,0.04583740234375,0.0797403693591525,-0.0196658467535811,-0.0012652678338966,1
-0.0819854736328125,-1.02960205078125,0.10015869140625,-0.0528291265439019,0.0077854851307376,-0.0261501113757061,1
0.030792236328125,-1.02224731445312,0.004058837890625,0.148815311184756,-0.0169345087395959,-0.0666703736773707,1
-0.06024169921875,-1.02693176269531,0.0896148681640625,-0.0605496305440416,-0.147452837971071,0.0637334396272313,1
-0.0224609375,-0.970321655273438,-0.0096893310546875,-0.0025382588349545,0.0021489046835849,0.030888673903284,1
0.130966186523438,-0.997512817382812,0.12322998046875,-0.0554262412389471,0.123738453728352,-0.0840514945317728,1
0.06463623046875,-0.924774169921875,0.099517822265625,-0.154360811522628,-0.005379319085851,-0.0068975872233052,1
0.203903198242188,-1.09062194824219,0.006103515625,0.027963457761941,-0.0714480846729728,0.0185963212598053,1
0.012298583984375,-0.843902587890625,0.063385009765625,-0.0293488341610002,-0.0987241805575644,0.0671257742237742,1
0.036407470703125,-1.04930114746094,-0.0322418212890625,-0.0564819182950545,-0.0740864783649143,0.040129043937532,1
0.0775146484375,-1.01295471191406,-0.094696044921875,-0.119901371229765,0.197567670731964,-0.0017374462951677,1
0.0280914306640625,-0.928024291992188,0.0183258056640625,-0.0219279357834944,-0.0009262474271295,-0.0322085365395273,1
0.0231781005859375,-1.11735534667969,-0.0243377685546875,0.0209849104414974,0.047726243579201,-0.0286960933778218,1
-0.034912109375,-0.952499389648438,-0.1947021484375,0.155527009763973,-0.0988581375603954,0.0978067215620321,1
0.02618408203125,-1.01506042480469,-0.0564422607421875,-0.219679897262892,0.137575706120185,-0.0580473243838031,1
0.113479614257812,-1.10545349121094,0.063446044921875,-0.137775443201941,0.173213595195408,-0.0317115906801185,1
0.105056762695312,-0.953353881835938,-0.0714111328125,-0.0621147703166811,0.0844368539415073,-0.0061849253156,1
0.065948486328125,-1.00358581542969,-0.0538787841796875,-0.027693146911298,0.0820812879573322,-0.0324817768673694,1
0.0358428955078125,-1.02691650390625,-0.002227783203125,0.0094294544716435,-0.0106976517827393,0.0054552191769183,1
0.02484130859375,-0.9881591796875,0.01025390625,-0.0201966147588339,0.018215755540033,0.0072097097030625,1
0.0234832763671875,-0.995635986328125,0.02777099609375,-0.0163025406129201,-0.0030815436973306,0.0222315361477635,1
0.029541015625,-0.99981689453125,0.03253173828125,0.023156451994348,-0.0182322671387915,0.0098800613280849,1
0.0300750732421875,-0.992904663085938,0.05157470703125,-0.0116254971065229,0.009648898945466,-0.001210140399332,1
0.02532958984375,-1.00321960449219,0.101730346679688,-0.0351574548145721,-0.0104092314366837,-0.0045979476220218,1
0.016815185546875,-1.0291748046875,0.047454833984375,0.0334162800938783,-0.0523364417422372,0.0196690425468892,1
0.0356597900390625,-0.99920654296875,0.08197021484375,-0.0074544542072408,-0.013781059692833,-0.0075042553196252,1
0.046051025390625,-0.980270385742188,0.08807373046875,-0.0246592737974797,-0.0030290794238561,0.010417487236063,1
0.0414276123046875,-0.986434936523438,0.110794067382812,-0.0118452078964544,-0.0137509659725151,0.0020466392977258,1
0.043212890625,-0.985061645507812,0.125228881835938,-0.0255948422884245,-0.0072797508397316,-0.0013094763079919,1
0.0345306396484375,-0.988357543945312,0.130859375,-0.0149674979584633,-0.0041571944616136,0.0019899139665072,1
0.054718017578125,-0.98541259765625,0.129501342773438,-0.013812218677587,8.94822126266624e-05,-0.0022740732548186,1
0.0503082275390625,-0.98028564453125,0.12774658203125,-0.0180005721239546,0.007562578547498,-0.0034024546086852,1
0.04571533203125,-0.989715576171875,0.128799438476562,-0.0116534602979687,7.51011427402345e-05,-0.0043843621025974,1
0.0482177734375,-0.965362548828125,0.232223510742188,-0.0065268751995662,-0.0105940548163352,0.0042253713855197,1
0.041534423828125,-0.971038818359375,0.179855346679688,-0.0139200767017352,-0.0084190511540675,0.0009454221869781,1
0.0435028076171875,-0.954620361328125,0.1900634765625,-0.0181949828835304,-0.010518687357486,0.0009070726672809,1
0.0480194091796875,-0.968032836914062,0.202651977539062,-0.0138428450301229,-0.0020375845500196,-0.0012026835482797,1
0.0479736328125,-0.973312377929688,0.189453125,-0.014923555800477,-0.0041579934099407,-0.0012082761865689,1
0.0444488525390625,-0.955703735351562,0.199005126953125,-0.0149089084144816,-0.0041582597260497,-0.0022743395709276,1
0.046356201171875,-0.967910766601562,0.189483642578125,-0.0150141032775397,-0.0084115943030152,0.0030666299952262,1
0.0451507568359375,-0.963272094726562,0.196609497070312,-0.0160189139568266,-0.0062781359537528,-0.0001478054404993,1
0.0481414794921875,-0.962234497070312,0.194580078125,-0.0128100711593901,-0.0062991749263644,-0.0011811119434501,1
0.0435791015625,-0.969085693359375,0.193954467773438,-0.0191811514351867,-0.0020026971397395,-0.0001912149662676,1
0.0488128662109375,-0.962921142578125,0.192886352539062,-0.0160175823762816,-0.0041505365588884,0.0009129316216791,1
0.0426025390625,-0.964813232421875,0.192352294921875,-0.0191518566631958,-0.0020032297719576,-0.0023233417349851,1
0.05291748046875,-0.964431762695312,0.187637329101562,-0.0149461926697427,-0.0052213936332093,-0.0001395496411201,1
0.045501708984375,-0.96405029296875,0.198272705078125,-0.0160042665708312,-0.0062784022698618,-0.0012138688248581,1
0.0490264892578125,-0.96417236328125,0.193511962890625,-0.0159962770875609,-0.0052147357304841,-0.0012165319859482,1
0.0473785400390625,-0.964309692382812,0.1890869140625,-0.0127874342901245,-0.0052357747030957,-0.0022498384888989,1
0.048065185546875,-0.96392822265625,0.197433471679688,-0.0181470459839089,-0.00413668812122,0.0008910937007405,1
0.04498291015625,-0.968215942382812,0.192184448242188,-0.0128313764481108,-0.0052349757547687,0.0009483516641772,1
0.04571533203125,-0.961990356445312,0.19439697265625,-0.0138881187686542,-0.0041643849965569,0.0009347695426178,1
0.047119140625,-0.962661743164062,0.19622802734375,-0.015965650735025,-0.0030876689678378,-0.002287921692487,1
0.0455780029296875,-0.968109130859375,0.193649291992188,-0.0160189139568266,-0.0062781359537528,-0.0001478054404993,1
0.046539306640625,-0.961807250976562,0.196990966796875,-0.0159949455070159,-0.0030871363356198,-0.0001557949237696,1
0.0503692626953125,-0.965728759765625,0.196640014648438,-0.0160189139568266,-0.0062781359537528,-0.0001478054404993,1
0.0472564697265625,-0.966659545898438,0.199737548828125,-0.0159949455070159,-0.0030871363356198,-0.0001557949237696,1
0.05072021484375,-0.95501708984375,0.252151489257812,-0.0202405569168202,-0.0051873051712563,-0.0023262712121842,1
0.03521728515625,-0.959014892578125,0.250106811523438,-0.0108710235697034,-0.0180114910844239,0.0063324644399904,1
0.0402679443359375,-0.95697021484375,0.248443603515625,-0.010619354846691,-0.0020588898387402,-0.0033020534355892,1
0.0513153076171875,-0.94256591796875,0.2413330078125,-0.0085205175915995,-0.0041998050390549,-0.0022088258081117,1
0.0478057861328125,-0.952880859375,0.240768432617188,-0.0117826236108376,-0.0073692330523582,0.0009645969468267,1
0.05328369140625,-0.951690673828125,0.2457275390625,-0.0160335613428221,-0.0062778696376437,0.0009182579438593,1
0.051422119140625,-0.95074462890625,0.2635498046875,-0.0116388129119733,7.48348266312266e-05,-0.0054504254869561,1
0.0460968017578125,-0.961166381835938,0.2469482421875,-0.0129485555360743,-0.0169347750557049,0.0031097732048855,1
0.044921875,-0.952133178710938,0.22576904296875,-0.0170317141193838,-0.0052083441438679,-0.0033595777151349,1
0.0543212890625,-0.952011108398438,0.234207153320312,-0.0203484149409684,-0.0136958385379505,0.0008932242296125,1
0.037261962890625,-0.95452880859375,0.24560546875,-0.0127674605819489,-0.0084275732695557,-0.0054400391587048,1
0.0544281005859375,-0.975341796875,0.222061157226562,0.0011406318948809,-0.0074549868394588,-0.0095650093711285,1
0.064239501953125,-0.950393676757812,0.212905883789062,0.0010394317734579,-0.0053255232318314,-0.001041828618439,1
0.0515289306640625,-0.947860717773438,0.231887817382812,-0.0086190545519324,-0.0095170724715071,0.0020687435347735,1
0.0507354736328125,-0.95281982421875,0.231414794921875,-0.0021241372854472,-0.0031776838126825,-0.0021459752063858,1
0.051055908203125,-0.959854125976562,0.22454833984375,-0.004201669251818,-0.0021009677839635,-0.0053686664414907,1
0.063507080078125,-0.954605102539062,0.2254638671875,-0.0041963429296378,-0.0052925000343144,-0.0074928037269379,1
0.0742950439453125,-0.955368041992188,0.2198486328125,-0.0126596025578007,8.09600971384088e-05,-0.0086595346005016,1
0.0565185546875,-0.96685791015625,0.212905883789062,-0.0214224678085974,-0.0168801802533582,-0.0001757686319452,1
0.0424346923828125,-0.94879150390625,0.230728149414062,-0.0211375095719589,-0.0062472432851078,-0.0151272876238681,1
0.076385498046875,-0.934402465820312,0.224761962890625,-0.0129751871469751,-0.0126790436337582,0.00736337409796,1
0.03857421875,-0.961669921875,0.227432250976562,-0.0256081580938749,-0.0168538149585665,-0.0055497613956161,1
0.0819549560546875,-0.954940795898438,0.237991333007812,-0.0179859247379591,-0.0158415474282273,-0.0172026890613668,1
0.0676727294921875,-0.955368041992188,0.250717163085938,-0.0118278973493689,-0.0094960334988955,0.0031020500377243,1
0.081298828125,-0.967315673828125,0.26263427734375,-0.0110015184631173,-0.0158814948445785,0.0169877719613974,1
0.0442047119140625,-0.938735961914062,0.245101928710938,-0.0351175073982209,-0.0167928285696036,-0.0109783489616336,1
0.0904541015625,-0.93206787109375,0.231048583984375,-0.0210909042528825,0.0097090863861018,-0.0098369181184256,1
0.109130859375,-0.96820068359375,0.1976318359375,-0.0409239975229206,0.0353649150634892,-0.0250331816145268,1
0.113555908203125,-0.930633544921875,0.258529663085938,-0.0226810777397688,0.0405636718274329,-0.0323233187825097,1
0.0962066650390625,-0.959625244140625,0.242279052734375,-0.0003342267168049,-0.0191425355993806,0.0139067608962848,1
0.0697479248046875,-0.940078735351562,0.256912231445312,-0.0125157918589364,0.0075250279761279,-0.0150745570342845,1
0.120391845703125,-0.963394165039062,0.236602783203125,-0.0037063212890632,0.0287405681680261,-0.02463503903156,1
0.130752563476562,-0.918487548828125,0.233779907226562,-0.0291893108117045,0.0714579383690061,-0.0068805429923287,1
0.108871459960938,-0.916030883789062,0.254547119140625,-0.0529471045801924,0.0928801398614945,-0.0487614142949148,1
0.146514892578125,-0.974746704101562,0.251129150390625,0.0208797155784392,0.0668767686618518,-0.010620952743345,1
0.164718627929688,-0.931747436523438,0.322006225585938,-0.000607467044647,0.126579780295357,-0.0419152260806481,1
0.176986694335938,-0.941329956054688,0.305282592773438,-0.0250350458272899,0.166098960343261,-0.025207884982036,1
0.180130004882812,-0.891265869140625,0.293685913085938,-0.0445578808303337,0.160898605682663,-0.0797712620277975,1
0.298614501953125,-0.912399291992188,0.293991088867188,-0.0022943132791032,0.276570610785274,-0.070041136669084,1
0.231704711914062,-0.951568603515625,0.306610107421875,-0.0359521420838517,0.301264771993034,-0.0096752642402578,1
0.111053466796875,-0.920883178710938,0.293930053710938,-0.0108619688219972,0.262809791116725,0.0034754252225534,1
0.0841064453125,-0.910293579101562,0.306381225585938,-0.0446465640946334,0.281098517270627,-0.0854134351132393,1
0.317626953125,-0.947616577148438,0.203948974609375,-0.0264435917278328,0.327786660656915,-0.0672219143391261,1
0.187942504882812,-0.874649047851562,0.273468017578125,-0.0183603651872243,0.213923740882795,-0.01993189654648,1
0.151596069335938,-0.92596435546875,0.293685913085938,-0.0278145870570056,0.28311905758967,-0.0692531073025295,1
0.26812744140625,-1.16697692871094,0.332168579101562,-0.14300242947344,0.392341951796545,-0.229580198615262,1
-0.0657958984375,-0.971206665039062,0.259613037109375,0.0680680006174443,0.263358668617391,-0.0053138053230351,1
0.168197631835938,-0.901870727539062,0.156646728515625,-0.075924059517069,0.348314306339246,-0.09763548030394,1
0.0973358154296875,-0.894515991210938,0.243865966796875,-0.0413570275161675,0.253429338809139,-0.0298652210963666,1
0.415191650390625,-0.99517822265625,0.191131591796875,-0.0918146091093538,0.469678818271901,-0.115170798185458,1
0.277847290039062,-0.93548583984375,0.217941284179688,-0.0075601817025169,0.361696690816894,-0.105499795002944,1
0.125991821289062,-0.964035034179688,0.260650634765625,-0.0554371601994164,0.325838025687304,-0.128287931818534,1
0.269866943359375,-0.9903564453125,0.196334838867188,0.0628482048808889,0.34743253370232,0.0327994919854159,1
-0.135299682617188,-1.04901123046875,0.275192260742188,0.039758598229902,0.135905105168379,0.0480359692139772,1
0.120758056640625,-0.8846435546875,0.070770263671875,-0.0493963118987897,0.19176251218781,-0.17585971205451,1
0.306228637695312,-0.963729858398438,0.255111694335938,0.0421977874723055,0.158238107753674,0.115174792927093,1
0.092071533203125,-0.934539794921875,0.207794189453125,0.0158130516045635,0.126480178070588,0.0030341394299272,1
0.211959838867188,-0.98077392578125,0.192657470703125,-0.0204847687887805,0.289443266230281,-0.134233438952136,1
0.208328247070312,-0.8489990234375,0.328292846679688,-0.112648784633153,0.162404623279103,-0.0836709288120005,1
0.092864990234375,-0.900070190429688,0.246749877929688,-0.0260931197283784,0.200147741196033,-0.0071809475632896,1
0.0644683837890625,-0.97344970703125,0.213546752929688,-0.0240382246312732,0.174603765284429,-0.0156237008510589,1
0.203704833984375,-0.988189697265625,0.268081665039062,-0.0024509071511999,0.206349444426501,-0.174350498664763,1
0.160491943359375,-0.896331787109375,0.173324584960938,0.0249783204960712,-0.0065385931083625,0.0386563158547182,1
-0.0466766357421875,-0.961090087890625,0.248870849609375,-0.0271868799880739,0.004438690588835,0.043424972102614,1
-0.081817626953125,-0.9737548828125,0.247100830078125,-0.046584546419884,0.0120018017685511,-0.0133024896449458,1
0.0269317626953125,-0.937210083007812,0.245834350585938,0.0418409238862349,-0.0843044948353304,0.009175655219759,1
-0.0067596435546875,-0.914413452148438,0.185531616210938,-0.0107237507614221,-0.0914047486175906,0.0331787261246432,1
0.0072784423828125,-0.937789916992188,0.251800537109375,-0.0140039662760727,-0.0137365849026287,0.0041569281455046,1
0.0032501220703125,-0.95257568359375,0.334762573242188,0.0159424812335413,-0.0734939250223717,0.0398028067039973,1
0.08294677734375,-0.934249877929688,0.281478881835938,-0.0573916541234256,0.0142015728289565,-0.0006242449595145,1
0.0282135009765625,-0.94281005859375,0.201400756835938,-0.0150274190829901,-0.0179856584218501,-0.0011736550923979,1
-0.0220489501953125,-0.919891357421875,0.286392211914062,-0.0439789096093505,-0.0507731661823607,-0.0045840991843533,1
0.0748291015625,-0.94970703125,0.23028564453125,0.039794550904618,-0.0055825182770241,-0.0315645841879462,1
0.042327880859375,-0.915054321289062,0.256820678710938,0.0261650250778105,-0.0852573738733607,0.0644607489209319,1
0.068115234375,-0.887939453125,0.316741943359375,-0.114699418672514,0.0571245390660906,0.0082741751907671,1
0.0669403076171875,-0.874008178710938,0.4033203125,-0.091417798106932,-0.0068539113814279,-0.0158452758537535,1
0.139739990234375,-0.961990356445312,0.351058959960938,-0.0711079990017697,0.0738627728333477,0.0225380659892316,1
-0.0121307373046875,-0.83123779296875,0.2301025390625,0.0433802309963007,0.046516369495978,-0.0316623221999521,1
0.0804901123046875,-0.921142578125,0.358444213867188,-0.0922851896739708,-0.0983135211174742,0.0750100626309538,1
-0.170822143554688,-0.906845092773438,0.212127685546875,0.0290795885747932,-0.0756987560888483,0.0900550585771384,1
0.074310302734375,-0.9959716796875,0.28155517578125,-0.0857244923285606,-0.0994344456202885,-0.0155480670761006,1
0.0209197998046875,-0.99859619140625,0.21356201171875,-0.0286279164539158,0.0512477414886128,0.0187664972534614,1
0.0066680908203125,-0.886505126953125,0.234359741210938,-0.0957113464163577,0.0197697100360942,0.0011014834268567,1
0.128799438476562,-1.08749389648438,0.169876098632812,0.0643044213649443,0.130400883827403,-0.113763051233242,1
0.131698608398438,-1.06111145019531,0.105560302734375,-0.0764569580511939,0.0685787949145215,0.0214307236079766,1
-0.116744995117188,-0.87127685546875,0.143356323242188,-0.0379364634120697,-0.132697061319269,0.131098365716895,1
-0.0152130126953125,-0.917129516601562,0.226394653320312,0.0724052247687473,-0.069606242463074,0.0403708589645112,1
-0.04254150390625,-0.948074340820312,0.281967163085938,-0.0138114197292599,-0.0381953226700254,0.0543340788759056,1
0.0015869140625,-1.02691650390625,0.253204345703125,0.0955076145929667,-0.0761480313647447,-0.0169512866544634,1
0.0365447998046875,-1.01518249511719,0.239456176757812,0.0919397776805875,-0.0718776525568026,-0.0649784674368433,1
-0.212326049804688,-0.927154541015625,0.432083129882812,-0.0735328071742869,-0.102685898995166,0.102934904557089,1
-0.036407470703125,-1.03752136230469,0.319656372070312,0.110435697767297,-0.0251948354926946,-0.0681082143499045,1
0.195022583007812,-1.02302551269531,0.166946411132812,0.0508711705104756,0.0879434381488146,-0.08926809447502,1
0.045989990234375,-1.03932189941406,0.2646484375,0.0431069906684586,0.0401135976032095,-0.170256421120984,1
0.550064086914062,-0.283340454101562,0.38653564453125,0.67741923173575,-0.0426931354350603,0.0454295334551167,1
0.302490234375,-1.32308959960938,0.479568481445312,0.387852661146998,0.261237460809143,-0.261124276462814,1
-0.538116455078125,-1.00904846191406,0.42156982421875,0.476905838522049,-0.333833900544158,0.529255329753627,1
0.212677001953125,0.128890991210938,1.19772338867188,-0.783187739692683,-0.103408414598905,-0.0226786808947878,1
-0.564178466796875,-0.858123779296875,0.26348876953125,-0.277688073178671,0.0666213715133132,-0.44762624654939,1
0.475112915039062,-1.42301940917969,0.0882415771484375,-0.16292899969774,-0.457418157245394,-0.0943145184246112,1
-0.2208251953125,-1.07389831542969,0.249786376953125,-0.0204429571596662,-0.257244849702896,0.262743212089473,1
-0.188888549804688,-0.902511596679688,0.293960571289062,-0.0653457173511653,-0.30803852222565,0.0928865314481107,1
0.0950775146484375,-1.12521362304688,0.288970947265625,0.16374232909465,0.0351073873860786,0.0378371275034098,1
-0.144683837890625,-1.15533447265625,0.4365234375,0.0517947547765151,-0.13646303741675,0.186403699442352,1
-0.174468994140625,-0.804458618164062,0.446762084960938,-0.207463178394372,-0.260313077594776,0.0763813242762356,1
-0.098419189453125,-0.954086303710938,0.465225219726562,0.0464782862923899,0.0773230180376876,-0.162854431187217,1
0.527740478515625,-1.1026611328125,0.201751708984375,-0.33460648357639,0.187245258346817,-0.114795292471757,1
0.278884887695312,-0.86004638671875,0.234878540039062,-0.307001487297173,0.347689795063622,-0.0989335050192446,1
-0.046966552734375,-0.871963500976562,0.332534790039062,-0.0253455704103931,-0.0976834172035614,0.0863559278230184,1
-0.129150390625,-1.03916931152344,0.242584228515625,0.0073732277939933,-0.139406363053506,-0.0699348765415898,1
0.141036987304688,-0.986984252929688,0.314926147460938,0.0062589611939042,0.0478074699924484,-0.119475265455353,1
0.0743408203125,-0.854095458984375,0.212478637695312,-0.147485861168588,0.0626418098964078,-0.0827039350201927,1
0.271392822265625,-0.99371337890625,0.130905151367188,-0.0432800961393137,0.185355479237297,-0.0819537225411174,1
0.0532073974609375,-1.00361633300781,0.173416137695312,0.0114989969547441,0.0924793341174376,0.0659843433805663,1
0.0663604736328125,-0.99871826171875,0.422897338867188,-0.158094829687028,-0.193630986008609,0.0074107783653635,1
0.0222930908203125,-1.03042602539062,0.0968170166015625,0.137905938095355,-0.0934300826265959,0.0656258818978416,1
-0.0245208740234375,-0.905014038085938,0.332809448242188,0.0429831536777699,-0.109819442291053,0.144662377780886,1
0.0293731689453125,-1.05155944824219,0.166336059570312,-0.135832667186728,-0.0682448345138255,0.083016323816059,1
0.0048980712890625,-0.951202392578125,0.146255493164062,0.0344882024326351,0.033812824780191,-0.01146251164781,1
0.0919952392578125,-1.08355712890625,0.144439697265625,0.0240060003820833,-0.0065457836433057,-0.0455845294305593,1
-0.099609375,-0.99810791015625,0.193740844726562,-0.0194810233739296,0.0777637711980957,-0.0899621142550947,1
0.010528564453125,-1.02882385253906,0.215438842773438,-0.117633955877672,0.03905579001823,-0.0204970193297949,1
0.15203857421875,-1.17950439453125,0.0853424072265625,0.0699660355263437,0.0250800532497122,0.03690289059301,1
-0.0836334228515625,-1.10018920898438,0.215576171875,0.0195625161032861,0.0775139666878463,-0.0639725914931204,1
-0.0763702392578125,-1.04559326171875,0.1217041015625,0.0633398244181176,-0.0461619027548885,-0.0621390050826008,1
-0.0641326904296875,-1.00361633300781,0.315673828125,0.0100214751819682,-0.0989923608793354,-0.0081716434887991,1
0.197860717773438,-0.866165161132812,0.24273681640625,-0.151367684773488,0.210495187295427,-0.262249195707264,1
0.228439331054688,-1.03361511230469,0.10223388671875,0.441316152662557,0.0099394498203937,0.283840774245081,1
-0.04736328125,-0.837310791015625,0.435989379882812,-0.251210392988885,0.186711294548256,-0.0616955887611027,1
-0.0333099365234375,-0.768997192382812,-0.0976104736328125,-0.332075681592487,-0.102082959324372,0.0085918903088136,1
0.466323852539062,-1.04205322265625,0.059661865234375,0.0149413989797806,0.480670749355094,-0.205800566925835,1
-0.128585815429688,-0.939910888671875,0.290435791015625,0.136215629751482,-0.118918398471417,0.252261808987249,1
-0.282638549804688,-0.836196899414062,0.722854614257812,-0.0862121171241541,-0.201514209151353,0.19688696675734,1
-0.143112182617188,-0.472686767578125,0.378738403320312,-0.311966152201299,-0.602129270874228,0.210536466292323,1
-0.225738525390625,-0.873001098632812,0.209564208984375,0.0594257765640281,-0.277989276697959,0.174052490938783,1
-0.055145263671875,-1.0174560546875,0.130889892578125,0.180494943931793,-0.294730173626306,0.1891960238453,1
-0.04925537109375,-0.927322387695312,0.17718505859375,0.0392595218416211,-0.132141525915879,0.0935035858726821,1
0.164443969726562,-1.10171508789062,0.09271240234375,0.0588803611727799,0.0942801636465492,-0.0486863131521746,1
0.047454833984375,-0.924118041992188,0.160171508789062,-0.0594350976278434,-0.0283261803024098,0.0474442148197616,1
0.132797241210938,-0.946701049804688,0.1632080078125,0.0208991566543968,-0.0118332236715491,0.0226350050529105,1
0.114303588867188,-1.04452514648438,0.119155883789062,0.0145752143298947,0.0956397073830346,-0.0011638013963646,1
0.0328369140625,-0.789108276367188,0.306350708007812,-0.0662642416111336,-0.0187023150711905,0.0846669510596901,1
-0.739089965820312,-1.25743103027344,0.373519897460938,-0.111684986634653,-0.392823185005522,0.16406723474764,1
-0.179351806640625,-0.763839721679688,-0.276809692382812,0.318683709734915,-0.0499478525605451,-0.0467203676354781,1
-0.186294555664062,-0.795867919921875,0.08770751953125,0.0389612477995322,-0.350155349600817,0.384073369244066,1
-0.151580810546875,-0.87371826171875,0.404251098632812,-0.0063436497165687,-0.155263356816056,-0.0103264071267822,1
-0.348464965820312,-0.840087890625,0.466217041015625,0.118339160934325,-0.20394700680714,-0.0430430748022967,1
0.0063018798828125,-1.10340881347656,0.339996337890625,0.0276710426742503,-0.112943862881933,-0.0601994248606961,1
0.396926879882812,-1.19853210449219,0.0853118896484375,0.0257903183124364,0.561435104153382,-0.2538775488206,1
0.3341064453125,-0.999557495117188,0.193496704101562,-0.264777334530076,0.217609555831465,-0.297547531743501,1
-0.0049591064453125,-1.37583923339844,0.0481109619140625,0.358227390864848,-0.0395561979870559,0.0261602313878484,1
-0.781097412109375,-0.053009033203125,0.1561279296875,-0.359679878923377,-0.754935595268577,0.57721992625039,1
0.115463256835938,-0.914520263671875,-0.108474731445312,0.228815871382409,-0.503506556754196,0.356558920441913,1
-0.19720458984375,-0.75848388671875,0.289382934570312,0.11630557112594,-0.517697210622683,0.166723737934994,1
-0.225509643554688,-0.205093383789062,0.399017333984375,-0.129248267707617,-0.278899811474657,0.109216502620259,1
0.0897216796875,-0.741287231445312,0.1463623046875,-0.0485739277541732,0.389628989594081,-0.050548661702467,1
0.160110473632812,-0.981185913085938,-0.029937744140625,-0.276811893180035,0.227303195883244,-0.0364733227091802,1
0.0357818603515625,-1.52381896972656,-0.07867431640625,0.0785230384248773,-0.22279446415774,0.209290639534384,1
0.329727172851562,-1.05714416503906,-0.275741577148438,-0.0479131974877246,-0.585749232273587,0.300627211228069,1
-0.494094848632812,-1.06739807128906,-0.0475616455078125,0.116087724548772,-0.592172510506749,0.0645571553523928,1
-0.579757690429688,-0.837982177734375,0.13232421875,0.0021904499965901,-0.476503168565229,0.356301392764502,1
-0.0139312744140625,-0.855316162109375,-0.0027618408203125,-0.0802796594798936,-0.372808730465249,0.214449182565868,1
0.420913696289062,-1.09176635742188,-0.487548828125,-0.104945857496207,-0.413095966171532,0.0501036474843148,1
0.198287963867188,-0.816390991210938,-0.137191772460938,-0.126568595018779,0.0518845033052507,0.0166958895059248,1
0.683868408203125,-0.751861572265625,-0.386627197265625,-0.321000926199393,0.287132973984637,-0.198078465029042,1
0.243255615234375,-0.820449829101562,-0.105361938476562,-0.337082424441836,0.32128082442996,-0.171675885981996,1
0.0923309326171875,-1.05328369140625,-0.178298950195312,0.0165997493905729,0.0126753152082321,0.116354573289998,1
-0.11431884765625,-1.0789794921875,-0.0980377197265625,0.0456878600808544,-0.138566668361804,0.0871886982958862,1
0.003509521484375,-1.01115417480469,-0.11865234375,-0.0097983022826195,-0.0169547487638805,0.0063407202393696,1
0.14068603515625,-0.968185424804688,-0.103073120117188,-0.0894156335994104,0.039929839487994,-0.0585940713555964,1
0.127731323242188,-1.07090759277344,-0.0614166259765625,-0.034952391410636,0.0246928296272147,-0.0004215784005595,1
0.02978515625,-1.01312255859375,-0.01214599609375,-0.0314652482792862,0.0246667306485319,-0.021710089206326,1
0.0745086669921875,-0.985931396484375,0.078704833984375,-0.0144614973513483,0.020301276989674,-0.0215247331944564,1
0.0567779541015625,-0.99078369140625,0.132965087890625,-0.0138748029632038,-0.0062922507075302,-0.0011920309039194,1
0.05987548828125,-0.984848022460938,0.14862060546875,-0.019259714687344,-0.0105117631386518,0.0008961537068116,1
0.074493408203125,-0.944442749023438,0.254074096679688,-0.011729360389036,-0.0041787660664433,-0.0011755193051609,1
0.0696563720703125,-0.969207763671875,0.217300415039062,-0.0160388876650022,-0.0030863373872928,0.0030423952293065,1
0.06011962890625,-0.953399658203125,0.216140747070312,-0.0203151254273424,-0.0073135729855756,0.0019433086474308,1
0.0684356689453125,-0.95794677734375,0.22491455078125,-0.0095333177541566,-0.0031300132291701,-0.0054205980827472,1
0.074249267578125,-0.95721435546875,0.242034912109375,-0.0171835143015183,-0.0137160785622351,0.0030581078797379,1
0.074493408203125,-0.94537353515625,0.269607543945312,-0.008505870205604,-0.0042000713551639,-0.0032748891924704,1
0.0833282470703125,-0.950592041015625,0.277877807617188,-0.0107165602264789,-0.0052485578763281,0.0020362529694745,1
0.0781402587890625,-0.940719604492188,0.297088623046875,-0.0086163913908423,-0.0052618736817785,0.0041902176591306,1
0.0849151611328125,-0.936126708984375,0.300201416015625,-0.015828497938886,0.0171222615964464,-0.0012724583688398,1
0.0706939697265625,-0.960708618164062,0.257278442382812,-0.0180098931877699,0.004371312613256,-0.0044605285097737,1
0.0772247314453125,-0.94085693359375,0.247634887695312,-0.0354330919873953,-0.0178509024706921,0.0114116452709895,1
0.0655670166015625,-0.9403076171875,0.251113891601562,-0.0097090863861018,-0.003126817435862,0.0073721625295573,1
0.05615234375,-0.943405151367188,0.27288818359375,-0.0160135876346465,-0.0094696682041037,-0.0022719427259466,1
0.09552001953125,-0.960403442382812,0.284194946289062,0.0021627531212533,0.0063684171147064,0.0010719223387568,1
0.072967529296875,-0.926467895507812,0.286453247070312,-0.0179406509994278,0.0096891126779262,-0.0066059710839415,1
0.079559326171875,-0.94287109375,0.2510986328125,-0.0179193457107072,0.0086249135063306,-0.0087354346915689,1
0.083770751953125,-0.932785034179688,0.239105224609375,-0.0534696167860659,0.0024780713943187,0.0175718031884518,1
0.0572509765625,-0.949111938476562,0.2501220703125,0.027962658813614,0.0019425096991038,-0.0189105742684347,1
0.111968994140625,-0.919082641601562,0.322555541992188,-0.0215809258934571,-0.0243239818162387,0.0073053171861963,1
0.037933349609375,-0.968276977539062,0.291793823242188,-0.0148063767125135,0.0075418058909954,-0.0033696977272772,1
0.0418701171875,-0.940216064453125,0.284255981445312,-0.0214530941611333,-0.0307091768458127,-0.0054714644595677,1
0.027587890625,-0.944198608398438,0.285797119140625,-0.0241072005035063,-0.0264305422384914,0.0350064535807646,1
0.064849853515625,-0.94439697265625,0.309219360351562,-0.019259714687344,-0.0105117631386518,0.0008961537068116,1
0.0986785888671875,-0.915435791015625,0.309173583984375,-0.0389942709970492,0.032163262800996,-0.0122105935980133,1
0.108078002929688,-0.953231811523438,0.34637451171875,0.057507501630844,0.0304764165665398,0.016503342959112,1
0.085235595703125,-0.910919189453125,0.371871948242188,-0.0018445053709888,0.0106467854059188,-0.0149733569128615,1
0.140151977539062,-0.918655395507812,0.306365966796875,-0.0401934924359119,-0.0071884044143418,-0.0238496728260956,1
0.0107574462890625,-0.930191040039062,0.478302001953125,-0.0488554238813946,0.157735569255976,-0.0787408850020458,1
0.143966674804688,-0.9144287109375,0.503280639648438,-0.0046325687161928,0.051085022346009,-0.0225697576062035,1
0.156692504882812,-0.88653564453125,0.427032470703125,-0.0123240442604507,0.0213510950913833,-0.0215055584346079,1
0.05474853515625,-0.924072265625,0.32293701171875,-0.0200520051116426,-0.0594327007828623,0.0319344972633582,1
0.045166015625,-0.89276123046875,0.374908447265625,-0.0596715863326424,-0.003866643586686,0.0004652542424368,1
0.0148468017578125,-0.936965942382812,0.356185913085938,0.0647502345314235,0.0102193480509611,0.0208946292805437,1
0.101181030273438,-0.959716796875,0.348968505859375,-0.0077500650882395,-0.0414347918199978,-0.0010386328251309,1
0.0725250244140625,-0.956497192382812,0.300018310546875,-0.0408454342707633,0.0204701214027851,-0.0388547213559291,1
0.0644378662109375,-1.05682373046875,0.399169921875,0.0779291535017897,0.0207670638643289,-0.002454369260617,1
0.0349578857421875,-0.905517578125,0.28924560546875,0.0017619473771964,-0.0489425092490402,0.0001443433310822,1
0.140106201171875,-0.920440673828125,0.350204467773438,-0.0089793802474201,0.0277104574583835,-0.0289512242102514,1
0.092987060546875,-0.942916870117188,0.23480224609375,0.0338676858986467,0.0019097528176958,0.016335031178219,1
-0.0174407958984375,-0.938018798828125,0.394454956054688,-0.029981068603785,0.0278436155128874,-0.0504908711068123,1
0.0487060546875,-0.915023803710938,0.307388305664062,-0.0309611118849342,0.0182871282572471,0.015629027173239,1
0.0122222900390625,-0.984909057617188,0.402420043945312,0.0440196559740287,-0.0524048849822522,0.0229764223046586,1
0.139053344726562,-0.96197509765625,0.301055908203125,-0.0450750667140271,0.032199215475712,-0.0346634384323624,1
0.166229248046875,-0.913375854492188,0.24700927734375,-0.0404624717060099,0.0428156408452039,0.0229319475144543,1
0.142913818359375,-0.98748779296875,0.442779541015625,-0.0582702309670427,0.180134884552415,-0.0788950820291614,1
0.146240234375,-0.984054565429688,0.370773315429688,-0.0313653797384082,0.008707737816232,-0.0376610925553555,1
-0.0069427490234375,-0.99371337890625,0.2850341796875,-0.0207912986302486,0.0320436868680514,-0.0194874149605458,1
-0.106536865234375,-0.916397094726562,0.2664794921875,0.0085162565338553,-0.168100325902456,0.141261254752746,1
-0.569259643554688,-0.851211547851562,0.706680297851562,-0.337926912823501,0.0351681074589324,-0.0334045621850819,1
0.10980224609375,-0.368072509765625,0.341522216796875,-0.383045921695514,0.0322623323935469,-0.0839710670668524,1
-0.278121948242188,-0.4254150390625,0.3721923828125,-0.353681108567973,-0.240221924015109,0.0332500988418573,1
0.276626586914062,-0.972808837890625,0.0229644775390625,0.0363042119799602,-0.65647240449784,0.488259426881274,1
-0.05279541015625,-0.967819213867188,0.317657470703125,-0.0064371266708305,-0.480688592534397,0.439388556665557,1
0.1197509765625,-0.9111328125,0.334579467773438,0.140074550171007,0.0203707854941251,0.0472287650875742,1
-0.0661163330078125,-0.940338134765625,0.3785400390625,-0.138072385663485,0.108326474183954,-0.045407961850287,1
0.380462646484375,-0.8878173828125,0.275634765625,-0.062278288407612,0.222698057726279,-0.151548513411504,1
-0.064239501953125,-0.711624145507812,0.153915405273438,0.0232427384136666,0.081739604389475,-0.096998452171193,1
0.12811279296875,-0.995498657226562,0.750946044921875,-0.0315291641454481,0.0161573983335107,-0.0216887839176053,1
-0.242843627929688,-0.854171752929688,0.253173828125,-0.27800791882559,-0.0939089189905921,0.108282265709859,1
0.10400390625,-1.1370849609375,0.172149658203125,-0.0181241427985343,0.209651764178199,-0.116943930839232,1
0.172393798828125,-0.856964111328125,0.203094482421875,0.0014069480038888,-0.259521053486587,0.22139044563105,1
-0.031158447265625,-0.9288330078125,0.265960693359375,0.0574896584515405,-0.107806358823062,0.0200586630143678,1
0.086669921875,-0.935440063476562,0.0538330078125,-0.0736443936239612,0.246146924808318,-0.319121000785906,1
0.2943115234375,-0.887252807617188,0.265609741210938,0.057775149320397,-0.0333571579176785,-0.0377060999777779,1
0.209976196289062,-0.918716430664062,0.295074462890625,0.0284548109830606,-0.0001816275863434,0.0216160796198462,1
0.232528686523438,-0.889175415039062,0.285659790039062,-0.0603765250731864,-0.151711232554108,0.0488192048905695,1
-0.0753021240234375,-0.877838134765625,0.337875366210938,0.0780585831307675,-0.144101249739207,0.0534155546159373,1
0.0537567138671875,-0.929107666015625,0.305679321289062,0.0937592493373297,-0.108030596986846,0.0929331367671871,1
-0.053802490234375,-0.923171997070312,0.338790893554688,-0.039559660096473,0.0576925913266046,-0.0346727594961776,1
0.0062408447265625,-0.95404052734375,0.271530151367188,0.0057518953223531,-0.0457738801840639,0.0215012973768637,1
-0.0089263916015625,-0.879226684570312,0.354537963867188,0.0145595016794632,-0.102204133153971,0.0473262367834711,1
0.0709991455078125,-1.08784484863281,0.261764526367188,-0.0194509296536117,-0.0307331452956234,-0.0736886020980565,1
-0.0531005859375,-1.02861022949219,0.3419189453125,0.116014487618795,-0.0433064614341055,-0.0189585111680561,1
0.07061767578125,-0.958282470703125,0.3087158203125,-0.0821316217019347,0.038820632893976,-0.0467882782432751,1
0.289642333984375,-1.17413330078125,0.0978546142578125,0.0328775226053552,0.0040429448508492,0.0120545323581347,1
0.150146484375,-0.802871704101562,0.187530517578125,-0.170898509259802,0.0064243434975981,-0.0369513601248494,1
-0.341064453125,-1.00444030761719,0.14971923828125,0.165655810337872,-0.218052439520745,0.148330083234143,1
-0.334259033203125,-0.8438720703125,0.344558715820312,-0.111963553284675,-0.488523878777519,0.364759592386594,1
-0.210678100585938,-1.0303955078125,0.172927856445312,0.138132040471903,-0.225309553491211,0.209907427642846,1
-0.222442626953125,-1.13899230957031,0.22674560546875,-0.417678201143122,0.175020017362808,-0.120945330377077,1
-0.141220092773438,-0.827163696289062,0.137924194335938,0.0490948420633927,0.0113812852345626,-0.0016591493591193,1
0.0588836669921875,-1.12380981445312,0.266067504882812,0.0795406322773966,-0.0696613698976387,-0.0139328598749676,1
-0.0475006103515625,-1.03620910644531,0.152130126953125,0.0472609893367642,0.0156450061397795,-0.0208807808428753,1
-0.227294921875,-1.01655578613281,0.17425537109375,0.0484383728546882,-0.0662650405594606,0.00386557832225,1
-0.212142944335938,-0.63079833984375,0.476425170898438,-0.120418557113459,-0.118362596751918,-0.0585029912463157,1
0.29998779296875,-1.10975646972656,0.1171875,0.235319310764383,0.150557284853777,-0.148315435848148,1
0.28546142578125,-1.14314270019531,0.434295654296875,-0.231481429317469,0.448261676785483,-0.0376456462210331,1
-0.218154907226562,-1.13006591796875,0.229766845703125,-0.133464318029321,0.0253399777721039,0.0390842858418939,1
0.113723754882812,-0.9493408203125,0.242080688476562,0.0099975067321574,0.0265378676304216,0.061874286870247,1
-0.0858154296875,-1.09126281738281,0.293716430664062,0.0959017624342984,0.0504384068333377,0.0232422057814485,1
-0.2384033203125,-0.9407958984375,0.30987548828125,0.0262997810289685,-0.194807570578206,0.150041963182846,1
-0.234115600585938,-1.00337219238281,0.122406005859375,-0.144456249112514,-0.300086056894565,0.041943988220421,1
-0.03564453125,-1.08428955078125,0.20361328125,-0.171652982796621,-0.0010210559619363,-0.0635952215666562,1
0.0237884521484375,-1.09611511230469,0.219406127929688,0.218852719428314,-0.0343957907428094,0.0193888780002129,1
-0.0659332275390625,-0.942276000976562,0.341415405273438,-0.0201425525887053,-0.0753882315057451,0.0298423179109919,1
-0.00286865234375,-0.956069946289062,0.181991577148438,-0.0102110922515818,-0.0914140696814059,-0.0041334923279119,1
0.030517578125,-0.953842163085938,0.218368530273438,0.111553160160694,0.0428936714651432,0.0426137732345759,1
0.178131103515625,-0.90936279296875,0.196090698242188,-0.13414102726231,0.0529865193643255,-0.0516221819378779,1
0.126815795898438,-0.971206665039062,0.2789306640625,0.187136068742124,-0.127782730159746,0.106734702800414,1
0.6258544921875,-1.11064147949219,0.455169677734375,-0.0350232314956321,-0.148669902589237,0.1428977672426,1
0.120132446289062,-0.82171630859375,0.22052001953125,-0.148587078279336,-0.209611816761848,0.236785380944471,1
-0.230667114257812,-0.9794921875,0.281295776367188,0.0459411267005209,0.103940514184703,-0.0317842949778777,1
-0.123611450195312,-1.00328063964844,0.198211669921875,-0.0574129594121462,-0.10175352629753,-0.0621656366935016,1
-0.0954742431640625,-0.986557006835938,0.230789184570312,-0.0171187994870293,-0.102001200278907,0.0278095270509344,1
-0.0380096435546875,-1.10231018066406,0.155914306640625,0.157170979104879,-0.0744079219084869,0.0689726764397442,1
-0.04736328125,-0.958236694335938,0.198501586914062,0.130932184464874,-0.0880712698811384,0.0335542318383444,1
-0.169723510742188,-0.881912231445312,0.3128662109375,-0.0813262817882947,-0.150515206908553,0.0240787046798424,1
-0.080474853515625,-0.891921997070312,0.211761474609375,-0.0507995314771525,-0.0230770897938636,-0.0356456122423836,1
0.1292724609375,-0.986328125,0.188018798828125,-0.0271844831430928,-0.0062243400997332,-0.11754580524559,1
-0.003692626953125,-0.910247802734375,0.315216064453125,0.0815894021039946,-0.0654309385060478,-0.0832267135421753,1
0.44232177734375,-0.815383911132812,0.246627807617188,-0.0124883612997086,-0.0233135784986627,0.0436470797375266,1
0.242034912109375,-0.867813110351562,0.118682861328125,-0.0096422410427408,0.0468338182979155,-0.202800249641752,1
0.48876953125,-0.90521240234375,0.160614013671875,-0.0027750138558625,0.117007580389285,-0.121878768339149,1
0.464004516601562,-0.92352294921875,0.264541625976562,0.033508691783704,0.181688040100149,0.0627808269053099,1
0.0777435302734375,-0.731430053710938,0.305252075195312,-0.201175455060695,-0.0188799479158987,0.13766305780394,1
0.331192016601562,-0.956024169921875,0.283523559570312,-0.0650977770536789,-0.271848559856454,0.249529139392718,1
0.339431762695312,-0.940582275390625,0.368942260742188,0.160744941287766,-0.13185656767924,0.16511678653324,1
-0.01416015625,-0.959503173828125,0.326705932617188,-0.0359071346614294,0.0906665203634206,0.104953580663369,1
-0.159271240234375,-1.06044006347656,0.16815185546875,-0.06688262761625,0.157851949395613,-0.0842568242518179,1
-0.220062255859375,-1.06402587890625,0.2069091796875,-0.062446866504614,-0.0410744661245101,0.0271882115686189,1
-0.159088134765625,-0.9752197265625,0.125823974609375,0.0300529739532172,-0.100184125467146,0.0058973039178714,1
-0.014312744140625,-0.957351684570312,0.0231170654296875,-0.146383046161186,-0.0447983642767679,-0.0664221670637753,1
0.0448760986328125,-0.962921142578125,0.158111572265625,0.0379614971263165,-0.086411321573692,-0.0196464056776235,1
0.0795135498046875,-0.96380615234375,0.0795745849609375,-0.0687234045617128,-0.108055098068875,-0.0174841851885882,1
0.17047119140625,-0.9364013671875,0.06414794921875,0.0063279370661372,-0.101090132869991,0.0269810176358108,1
0.09674072265625,-0.909011840820312,0.218643188476562,0.0049662628007797,-0.084056820853953,0.057843326244303,1
